Folder: Reaction-Rate/cffp (part 4)

File: char_LF_reground_22_10_10.csv
#FILE:                       ,Char_LF_reground_22_10_10.dsu
#FORMAT:                     ,NETZSCH5
#IDENTITY:                   ,Char LF reground_22_10_10
#DECIMAL:                    ,POINT
#SEPARATOR:                  ,COMMA
#MTYPE:                      ,DTA
#MSUBTYPE:                   ,
#INSTRUMENT:                 ,NETZSCH STA 449 C
#PROJECT:                    ,Torrefaction
#DATE/TIME:                  ,22/10/2010 13:34:45
#CORR. FILE:                 ,buoyancy_drying_13_10_10.bsu
#LABORATORY:                 ,Sustainable Research Energ
#OPERATOR:                   ,A Saddawi
#REMARK:                     ,
#SAMPLE:                     ,nonisoth oxid with init drying
#SAMPLE MASS /mg:            ,10.120
#MATERIAL:                   ,char
#REFERENCE:                  ,Alumina
#REFERENCE MASS /mg:         ,0.000
#TYPE OF CRUCIBLE:           ,DTA/TG crucible Al2O3
#SAMPLE CRUCIBLE MASS /mg:   ,0.000
#REFERENCE CRUCIBLE MASS /mg:,0.000
#CORR. CODE:                 ,020
#EXO:                        ,-1
#RANGE:                      ,30.0....900.0/0.0....10.0K/min
#SEGMENT:                    ,S1-4/4

##Temp./øC,Time/min,DTA/(mW/mg),Mass/%,DTG/(%/min),Sensit./(æV/mW),Segment
 31.30800,0.0000e+000,-6.3784e-002,100,-5.2121e-002,8.9079e-002,1
 31.39000,    0.70000,-5.8210e-002, 99.94368,-5.8176e-002,8.9121e-002,1
 33.70800,    1.40000, 2.7393e-003, 99.89625,    -0.14694,9.0180e-002,1
 39.53700,    2.10000,    -0.20345, 99.83202,    -0.10682,9.2889e-002,1
 47.54700,    2.80000,    -0.37946, 99.75198,    -0.14039,9.6677e-002,1
 56.48400,    3.50000,    -0.45250, 99.63735,    -0.21907,    0.10100,1
 65.62000,    4.20000,    -0.45654, 99.48123,    -0.21468,    0.10551,1
 74.55200,    4.90000,    -0.45691, 99.31621,    -0.25476,    0.11002,1
 83.15900,    5.60000,    -0.46729, 99.15217,    -0.23609,    0.11445,1
 91.49100,    6.30000,    -0.49587, 99.00198,    -0.30501,    0.11882,1
 99.58500,    7.00000,    -0.51664, 98.86561,    -0.10922,    0.12312,1
106.896,    7.70000,    -0.28481, 98.74012,    -0.16054,    0.12707,2
111.962,    8.40000,     0.11417, 98.62352,    -0.13568,    0.12983,2
114.54,    9.10000,     0.37551, 98.52866,    -0.11530,    0.13124,2
115.194,    9.80000,     0.50776, 98.46542,-9.4768e-002,    0.13160,2
114.532,   10.50000,     0.55623, 98.41996,-5.6209e-002,    0.13124,2
112.994,   11.20000,     0.57783, 98.38834,-4.1222e-002,    0.13039,2
110.875,   11.90000,     0.57441, 98.36858,-3.9485e-003,    0.12924,2
108.402,   12.60000,     0.55439, 98.35573,-2.5102e-002,    0.12789,2
105.714,   13.30000,     0.51194, 98.34881,-1.1414e-002,    0.12643,2
102.896,   14.00000,     0.48060, 98.34684, 6.3382e-003,    0.12490,2
100.036,   14.70000,     0.44755, 98.34387, 2.3033e-002,    0.12337,2
 97.46600,   15.40000,     0.42222, 98.35079, 4.3204e-002,    0.12199,2
 96.21400,   16.10000,     0.34615, 98.35375, 2.3463e-002,    0.12132,2
 96.21800,   16.80000,     0.26470, 98.35870,-2.9567e-002,    0.12133,2
 96.85700,   17.50000,     0.22335, 98.35375,-3.8411e-003,    0.12167,2
 97.59700,   18.20000,     0.21251, 98.35178, 2.4749e-002,    0.12206,2
 98.23000,   18.90000,     0.22706, 98.35178, 2.3084e-002,    0.12240,2
 98.71200,   19.60000,     0.25478, 98.35079,-2.3084e-002,    0.12266,2
 99.06000,   20.30000,     0.26545, 98.35079, 2.6237e-002,    0.12284,2
 99.31300,   21.00000,     0.27620, 98.34980,-1.8973e-002,    0.12298,2
 99.49700,   21.70000,     0.28000, 98.34783, 1.8973e-002,    0.12308,2
 99.63700,   22.40000,     0.29086, 98.31719,-4.1410e-002,    0.12315,3
 99.72200,   23.10000,     0.28574, 98.39526,     0.15400,    0.12320,3
 99.79600,   23.80000,     0.28264, 98.44269, 6.1792e-003,    0.12324,3
 99.84300,   24.50000,     0.28659, 98.44466,-1.5796e-003,    0.12326,3
 99.89300,   25.20000,     0.29354, 98.44763, 1.3031e-002,    0.12329,3
 99.94900,   25.90000,     0.29147, 98.45059, 1.3094e-003,    0.12332,3
 99.96600,   26.60000,     0.29745, 98.44862,-5.2587e-003,    0.12333,3
100.006,   27.30000,     0.28740, 98.45158,-1.6893e-003,    0.12335,4
101.344,   28.00000,    -0.15332, 98.43478, 2.4096e-002,    0.12407,4
106.114,   28.70000,    -0.76270, 98.42787,-7.1814e-003,    0.12664,4
113.551,   29.40000,    -1.23423, 98.41700,-3.4106e-002,    0.13070,4
122.318,   30.10000,    -1.48631, 98.38735,-4.4339e-002,    0.13554,4
131.439,   30.80000,    -1.58961, 98.36166,-3.4862e-002,    0.14064,4
140.396,   31.50000,    -1.61995, 98.32213,-6.2875e-002,    0.14571,4
148.965,   32.20000,    -1.64851, 98.27964,-6.6880e-002,    0.15060,4
157.144,   32.90000,    -1.68045, 98.23617,-6.3119e-002,    0.15531,4
164.996,   33.60000,    -1.74930, 98.18972,-4.6972e-002,    0.15986,4
172.62,   34.30000,    -1.83435, 98.15020,-5.6853e-002,    0.16430,4
180.093,   35.00000,    -1.93331, 98.10771,-5.8346e-002,    0.16867,4
187.482,   35.70000,    -2.05983, 98.06719,-4.7766e-002,    0.17300,4
194.755,   36.40000,    -2.18231, 98.03063,-2.3121e-002,    0.17727,4
201.967,   37.10000,    -2.30762, 98.00395,-3.0410e-002,    0.18151,4
209.119,   37.80000,    -2.44166, 97.97628,-5.2366e-002,    0.18571,4
216.2,   38.50000,    -2.58539, 97.94960,-3.9375e-002,    0.18986,4
223.258,   39.20000,    -2.72902, 97.91897,-5.4337e-002,    0.19399,4
230.288,   39.90000,    -2.89082, 97.89822,-2.9150e-002,    0.19809,4
237.291,   40.60000,    -3.04658, 97.86561,-3.2541e-002,    0.20215,4
244.295,   41.30000,    -3.21811, 97.83399,-5.3715e-002,    0.20619,4
251.271,   42.00000,    -3.37964, 97.80237,-4.6535e-002,    0.21019,4
258.244,   42.70000,    -3.55473, 97.76976,-4.4446e-002,    0.21415,4
265.192,   43.40000,    -3.74245, 97.73123,-7.6736e-002,    0.21806,4
272.138,   44.10000,    -3.94320, 97.69071,-7.2071e-002,    0.22193,4
279.063,   44.80000,    -4.15123, 97.64723,-8.1494e-002,    0.22575,4
285.994,   45.50000,    -4.37581, 97.58992,-6.7403e-002,    0.22952,4
292.942,   46.20000,    -4.61466, 97.52174,    -0.13330,    0.23324,4
299.878,   46.90000,    -4.85775, 97.44071,-7.8199e-002,    0.23690,4
306.817,   47.60000,    -5.12862, 97.34289,    -0.17163,    0.24050,4
313.758,   48.30000,    -5.40408, 97.22628,    -0.17046,    0.24404,4
320.684,   49.00000,    -5.70441, 97.08794,    -0.21419,    0.24749,4
327.636,   49.70000,    -6.03635, 96.91996,    -0.26613,    0.25089,4
334.566,   50.40000,    -6.39035, 96.72431,    -0.31682,    0.25419,4
341.497,   51.10000,    -6.77726, 96.48814,    -0.37131,    0.25741,4
348.439,   51.80000,    -7.19147, 96.20949,    -0.43022,    0.26055,4
355.378,   52.50000,    -7.63222, 95.87747,    -0.49041,    0.26360,4
362.327,   53.20000,    -8.07678, 95.49407,    -0.57232,    0.26656,4
369.275,   53.90000,    -8.52574, 95.06324,    -0.66880,    0.26941,4
376.209,   54.60000,    -8.99846, 94.55632,    -0.77921,    0.27216,4
383.148,   55.30000,    -9.49206, 93.98320,    -0.89817,    0.27480,4
390.115,   56.00000,   -10.01469, 93.32806,    -1.03326,    0.27735,4
397.085,   56.70000,   -10.60006, 92.56621,    -1.10088,    0.27978,4
404.033,   57.40000,   -11.22755, 91.72530,    -1.36907,    0.28208,4
410.987,   58.10000,   -11.93797, 90.74111,    -1.51019,    0.28427,4
417.933,   58.80000,   -12.76036, 89.59585,    -1.79048,    0.28634,4
424.889,   59.50000,   -13.69500, 88.23123,    -2.06930,    0.28828,4
431.869,   60.20000,   -14.65775, 86.68379,    -2.38719,    0.29010,4
[...]
459.725,   63.00000,   -18.20567, 78.10573,    -3.58382,    0.29604,4
466.676,   63.70000,   -18.82904, 75.52668,    -3.74160,    0.29718,4
473.626,   64.40000,   -19.37679, 72.81621,    -3.97023,    0.29818,4
480.57,   65.10000,   -19.91665, 69.96542,    -4.45655,    0.29904,4
487.524,   65.80000,   -20.47947, 66.96640,    -4.36704,    0.29976,4
494.481,   66.50000,   -21.07382, 63.76581,    -4.68156,    0.30034,4
501.447,   67.20000,   -21.73368, 60.36759,    -5.07209,    0.30077,4
508.41,   67.90000,   -22.42740, 56.75296,    -5.35210,    0.30106,4
515.39,   68.60000,   -23.13535, 52.85672,    -5.69866,    0.30121,4
522.349,   69.30000,   -23.79340, 48.75000,    -6.05904,    0.30121,4
529.325,   70.00000,   -24.37374, 44.40909,    -6.25090,    0.30107,4
536.29,   70.70000,   -24.87089, 39.94664,    -6.46657,    0.30078,4
543.243,   71.40000,   -25.15609, 35.36067,    -6.48627,    0.30035,4
550.195,   72.10000,   -25.23331, 30.78854,    -6.42661,    0.29978,4
557.152,   72.80000,   -25.08824, 26.28459,    -6.61662,    0.29907,4
564.104,   73.50000,   -24.76441, 21.89525,    -6.15801,    0.29822,4
571.05,   74.20000,   -24.11144, 17.67984,    -5.81735,    0.29722,4
577.955,   74.90000,   -21.14629, 13.95257,    -4.32186,    0.29610,4
584.676,   75.60000,    -8.08752, 12.98024,-6.8408e-002,    0.29488,4
591.432,   76.30000,    -4.85726, 12.96047,-5.2565e-002,    0.29353,4
598.448,   77.00000,    -4.24405, 12.91897,-8.0786e-002,    0.29200,4
605.534,   77.70000,    -4.17082, 12.86463,-9.0156e-002,    0.29031,4
612.611,   78.40000,    -4.22615, 12.82411,-7.1285e-002,    0.28850,4
619.657,   79.10000,    -4.31070, 12.77174,-9.2399e-002,    0.28657,4
626.701,   79.80000,    -4.38789, 12.72332,-7.0926e-002,    0.28451,4
633.727,   80.50000,    -4.41381, 12.65514,-5.9766e-002,    0.28233,4
640.75,   81.20000,    -4.33039, 12.58102,    -0.13431,    0.28004,4
647.761,   81.90000,    -4.01283, 12.50000,    -0.12077,    0.27764,4
654.778,   82.60000,    -3.30336, 12.41205,    -0.12228,    0.27513,4
661.761,   83.30000,    -2.39133, 12.32509,    -0.12672,    0.27252,4
668.753,   84.00000,    -1.74608, 12.24802,-9.3375e-002,    0.26980,4
675.769,   84.70000,    -1.40230, 12.20060,-5.5590e-002,    0.26698,4
682.782,   85.40000,    -1.22837, 12.16502,-3.6996e-002,    0.26406,4
689.795,   86.10000,    -1.15028, 12.13340,-4.2933e-002,    0.26104,4
696.808,   86.80000,    -1.10855, 12.11166,-4.5710e-002,    0.25795,4
703.812,   87.50000,    -1.09671, 12.09091,-2.8393e-002,    0.25476,4
710.819,   88.20000,    -1.09031, 12.07905,-5.8056e-003,    0.25150,4
717.807,   88.90000,    -1.08303, 12.07016,-2.6300e-002,    0.24817,4
724.824,   89.60000,    -1.06586, 12.05829,-1.3136e-002,    0.24475,4
731.824,   90.30000,    -1.05049, 12.04545,-2.5142e-002,    0.24128,4
738.832,   91.00000,    -1.02926, 12.03261,-1.9414e-002,    0.23773,4
745.837,   91.70000,    -1.01606, 12.01581,-1.2890e-003,    0.23413,4
752.834,   92.40000,    -1.02036, 12.00494, 5.4532e-002,    0.23048,4
759.844,   93.10000,    -1.02778, 11.98518,-2.3045e-002,    0.22678,4
766.839,   93.80000,    -1.04282, 11.97529,-6.0696e-003,    0.22303,4
773.84,   94.50000,    -1.06986, 11.95850,-4.4960e-003,    0.21924,4
780.859,   95.20000,    -1.09866, 11.94960,-2.9643e-002,    0.21541,4
787.862,   95.90000,    -1.12921, 11.94565,    -0.15764,    0.21155,4
794.859,   96.60000,    -1.18067, 11.92392,-2.3790e-002,    0.20766,4
801.867,   97.30000,    -1.22155, 11.91600,-1.2795e-002,    0.20375,4
808.874,   98.00000,    -1.28147, 11.90810,-9.7583e-003,    0.19981,4
812.976,   98.41000,    -1.32711, 11.89723,-4.9093e-002,    0.19750,4

File: char_N2_reground_2_11_10.csv
#FILE:                       ,Char_N2_reground_2_11_10.dsu    ,,,,,
#FORMAT:                     ,NETZSCH5                        ,,,,,
#IDENTITY:                   ,Char N2 reground_2_11_10        ,,,,,
#DECIMAL:                    ,POINT                           ,,,,,
#SEPARATOR:                  ,COMMA                           ,,,,,
#MTYPE:                      ,DTA                             ,,,,,
#MSUBTYPE:                   ,                                ,,,,,
#INSTRUMENT:                 ,NETZSCH STA 449 C               ,,,,,
#PROJECT:                    ,Torrefaction                    ,,,,,
#DATE/TIME:                  ,2/11/2010 9:33,,,,,
#CORR. FILE:                 ,buoyancy_drying_13_10_10.bsu    ,,,,,
#LABORATORY:                 ,Sustainable Research Energ      ,,,,,
#OPERATOR:                   ,A Saddawi                       ,,,,,
#REMARK:                     ,                                ,,,,,
#SAMPLE:                     ,nonisoth oxid with init drying  ,,,,,
#SAMPLE MASS /mg:            ,10.42,,,,,
#MATERIAL:                   ,char                            ,,,,,
#REFERENCE:                  ,Alumina                         ,,,,,
#REFERENCE MASS /mg:         ,0,,,,,
#TYPE OF CRUCIBLE:           ,DTA/TG crucible Al2O3           ,,,,,
#SAMPLE CRUCIBLE MASS /mg:   ,0,,,,,
#REFERENCE CRUCIBLE MASS /mg:,0,,,,,
#CORR. CODE:                 ,20,,,,,
#EXO:                        ,-1,,,,,
#RANGE:                      ,30.0....900.0/-20.0....10.0K/min,,,,,
#SEGMENT:                    ,S1-5/5                          ,,,,,
,,,,,,
##Temp./øC,Time/min,DTA/(mW/mg),Mass/%,DTG/(%/min),Sensit./(æV/mW),Segment
32.216,0.00E+00,5.63E-02,100,-0.13359,8.95E-02,1
32.206,0.63,3.08E-02,99.92514,-8.65E-02,8.95E-02,1
33.378,1.26,-0.23984,99.84261,-0.17091,9.00E-02,1
37.498,1.89,-0.85204,99.77639,-0.12339,9.19E-02,1
43.902,2.52,-1.43157,99.67946,-0.16692,9.49E-02,1
51.625,3.15,-1.75497,99.55086,-0.22931,9.86E-02,1
59.827,3.78,-1.93548,99.38964,-0.25722,0.10264,1
68.061,4.41,-2.02075,99.21113,-0.27871,0.10674,1
76.077,5.04,-2.06678,99.03167,-0.27532,0.1108,1
83.833,5.67,-2.11596,98.86276,-0.21854,0.11481,1
91.395,6.3,-2.1504,98.70058,-0.27855,0.11877,1
98.705,6.93,-2.20263,98.56814,-0.19668,0.12265,1
105.535,7.56,-2.01977,98.44818,-0.19431,0.12633,2
110.722,8.19,-1.42113,98.34741,-0.14821,0.12915,2
113.78,8.82,-0.83718,98.26488,-0.127,0.13083,2
115.099,9.45,-0.37935,98.19578,-9.87E-02,0.13155,2
115.118,10.08,-6.02E-02,98.14779,-6.43E-02,0.13156,2
114.208,10.71,0.14371,98.11036,-2.26E-02,0.13106,2
112.68,11.34,0.30031,98.08253,-2.90E-02,0.13022,2
110.712,11.97,0.3892,98.0595,-2.43E-02,0.12915,2
108.478,12.6,0.4548,98.04703,-1.53E-02,0.12793,2
106.056,13.23,0.47563,98.03551,-1.44E-02,0.12661,2
103.53,13.86,0.48082,98.02879,-2.01E-02,0.12525,2
100.955,14.49,0.5046,98.02303,1.06E-02,0.12386,2
98.436,15.12,0.4896,98.02015,-1.60E-02,0.12251,2
96.656,15.75,0.37106,98.02303,-4.48E-02,0.12156,2
96.054,16.38,0.14051,98.02207,2.87E-03,0.12124,2
96.301,17.01,-5.44E-02,98.02207,6.93E-03,0.12137,2
96.935,17.64,-0.15475,98.0144,-1.07E-02,0.12171,2
97.614,18.27,-0.18672,98.01344,-1.44E-02,0.12207,2
98.193,18.9,-0.17448,98.00672,2.77E-03,0.12238,2
98.64,19.53,-0.14381,98.0048,-3.62E-02,0.12262,2
98.966,20.16,-0.12309,98.00288,-4.78E-03,0.12279,2
99.206,20.79,-0.10345,98,-4.41E-03,0.12292,2
99.397,21.42,-9.17E-02,97.99424,-1.81E-02,0.12302,2
99.546,22.05,-7.99E-02,97.99904,0.1688,0.1231,3
99.66,22.68,-7.50E-02,97.97409,6.97E-02,0.12316,3
99.743,23.31,-8.37E-02,98.02207,4.12E-02,0.12321,3
99.799,23.94,-7.88E-02,98.04319,3.58E-02,0.12324,3
99.857,24.57,-7.88E-02,98.04703,-1.58E-03,0.12327,3
99.91,25.2,-7.39E-02,98.04703,5.28E-02,0.1233,3
99.94,25.83,-7.20E-02,98.05374,3.68E-04,0.12332,3
99.97,26.46,-6.42E-02,98.04702,-9.09E-03,0.12333,3
99.989,27.09,-5.35E-02,98.04702,1.77E-02,0.12334,4
100.416,27.72,-0.35531,98.04894,-6.34E-03,0.12357,4
103.247,28.35,-1.31283,98.03743,2.48E-02,0.12509,4
108.739,28.98,-2.36326,98.02879,-1.49E-02,0.12807,4
115.985,29.61,-3.14626,98.00864,-3.83E-02,0.13204,4
124.023,30.24,-3.61491,97.98752,-4.36E-02,0.13649,4
132.276,30.87,-3.82631,97.96353,-8.03E-02,0.14111,4
140.35,31.5,-3.89982,97.91843,-5.20E-02,0.14568,4
148.102,32.13,-3.92633,97.87716,-7.42E-02,0.15011,4
155.521,32.76,-3.95224,97.82726,-6.56E-02,0.15437,4
162.656,33.39,-4.00674,97.77447,-6.03E-02,0.1585,4
169.583,34.02,-4.09125,97.72073,-7.88E-02,0.16253,4
176.373,34.65,-4.18986,97.66219,-9.82E-02,0.16649,4
183.045,35.28,-4.31066,97.60077,-5.63E-02,0.1704,4
189.672,35.91,-4.43546,97.54607,-0.10588,0.17428,4
196.217,36.54,-4.56064,97.49136,-0.14453,0.17813,4
202.695,37.17,-4.69997,97.44242,-9.30E-02,0.18193,4
209.113,37.8,-4.84295,97.39155,-9.16E-02,0.1857,4
215.498,38.43,-5.00178,97.34357,-8.43E-02,0.18945,4
221.856,39.06,-5.15322,97.29271,-7.94E-02,0.19317,4
228.195,39.69,-5.31539,97.24952,-8.67E-02,0.19687,4
234.499,40.32,-5.48867,97.20441,-8.45E-02,0.20053,4
240.795,40.95,-5.6487,97.15643,-0.10026,0.20417,4
247.079,41.58,-5.83161,97.11036,-8.31E-02,0.20779,4
253.36,42.21,-6.01352,97.0643,-4.92E-02,0.21138,4
259.627,42.84,-6.20543,97.01536,-8.63E-02,0.21493,4
265.881,43.47,-6.40426,96.95777,-7.96E-02,0.21845,4
272.142,44.1,-6.60686,96.89923,-0.10946,0.22193,4
278.385,44.73,-6.82747,96.84069,-6.81E-02,0.22538,4
284.627,45.36,-7.05945,96.76871,-0.13956,0.22878,4
290.878,45.99,-7.29046,96.69674,-0.16895,0.23214,4
297.12,46.62,-7.53841,96.60845,-0.1103,0.23545,4
303.373,47.25,-7.79093,96.5096,-0.10496,0.23872,4
309.618,47.88,-8.04643,96.39539,-0.22444,0.24194,4
315.869,48.51,-8.31218,96.26775,-0.18267,0.2451,4
322.102,49.14,-8.58802,96.12572,-0.2319,0.24819,4
328.32,49.77,-8.86085,95.97313,-0.28791,0.25122,4
334.564,50.4,-9.13804,95.7975,-0.27946,0.25419,4
340.807,51.03,-9.42122,95.60653,-0.30341,0.25709,4
347.054,51.66,-9.68933,95.41171,-0.34221,0.25993,4
353.3,52.29,-9.96415,95.1881,-0.36975,0.2627,4
359.539,52.92,-10.23585,94.94818,-0.41675,0.26538,4
365.769,53.55,-10.50176,94.6977,-0.38547,0.26798,4
372.023,54.18,-10.75787,94.4309,-0.45266,0.27051,4
378.274,54.81,-11.01621,94.1382,-0.49175,0.27296,4
384.521,55.44,-11.27881,93.84261,-0.48763,0.27531,4
390.773,56.07,-11.53714,93.52399,-0.5032,0.27758,4
397.031,56.7,-11.80065,93.19098,-0.57227,0.27976,4
403.27,57.33,-12.06311,92.83205,-0.56958,0.28184,4
409.521,57.96,-12.34264,92.46065,-0.6009,0.28382,4
415.784,58.59,-12.63131,92.0595,-0.70881,0.28571,4
422.044,59.22,-12.93869,91.63148,-0.71695,0.2875,4
428.301,59.85,-13.25365,91.16219,-0.77035,0.28919,4
434.585,60.48,-13.58684,90.67562,-0.88713,0.29077,4
440.852,61.11,-13.93771,90.13628,-0.89124,0.29225,4
447.118,61.74,-14.31727,89.56334,-0.91187,0.29362,4
453.389,62.37,-14.71703,88.92994,-1.04365,0.29488,4
459.649,63,-15.14509,88.24088,-1.17716,0.29603,4
465.915,63.63,-15.60068,87.47985,-1.24534,0.29706,4
472.184,64.26,-16.08736,86.66123,-1.35091,0.29798,4
478.45,64.89,-16.6115,85.74088,-1.49466,0.29879,4
484.722,65.52,-17.16939,84.72649,-1.67785,0.29949,4
491.002,66.15,-17.77068,83.6142,-1.81778,0.30007,4
497.274,66.78,-18.4147,82.36276,-2.10112,0.30053,4
503.547,67.41,-19.09245,80.9856,-2.24368,0.30088,4
509.82,68.04,-19.82335,79.45586,-2.50697,0.30111,4
516.097,68.67,-20.61489,77.62476,-2.97579,0.30122,4
522.389,69.3,-21.45162,75.69386,-3.26717,0.30121,4
528.671,69.93,-22.34769,73.57582,-3.58888,0.30109,4
[...]
610.112,78.12,-29.38517,24.71785,-6.27133,0.28916,4
616.358,78.75,-28.97146,20.72841,-6.14924,0.28749,4
622.635,79.38,-28.40418,16.88675,-5.85544,0.28571,4
628.879,80.01,-26.40024,13.23705,-5.42793,0.28385,4
635.057,80.64,-20.36383,10.29463,-2.60664,0.28191,4
641.065,81.27,-7.31542,10.09693,-2.82E-02,0.27994,4
647.202,81.9,-4.57415,10.04991,1.32E-02,0.27784,4
653.543,82.53,-3.72929,9.98368,-8.31E-02,0.27558,4
659.949,83.16,-3.38714,9.89348,-0.11544,0.27321,4
666.331,83.79,-3.2162,9.81766,-9.36E-02,0.27075,4
672.689,84.42,-3.1387,9.73705,-0.15195,0.26823,4
679.042,85.05,-3.11843,9.69578,-1.61E-02,0.26563,4
685.39,85.68,-3.14108,9.66795,-6.52E-02,0.26295,4
691.727,86.31,-3.16874,9.64492,-9.61E-02,0.2602,4
698.058,86.94,-3.21135,9.62285,-4.91E-02,0.25738,4
704.388,87.57,-3.26048,9.59981,-7.03E-02,0.25449,4
710.715,88.2,-3.30729,9.59597,2.19E-02,0.25155,4
717.032,88.83,-3.36371,9.58733,1.22E-02,0.24854,4
723.348,89.46,-3.42964,9.57581,-4.43E-02,0.24547,4
729.672,90.09,-3.49563,9.56814,-1.15E-03,0.24235,4
735.972,90.72,-3.56194,9.5595,4.13E-03,0.23919,4
742.299,91.35,-3.63557,9.54895,-2.09E-02,0.23596,4
748.607,91.98,-3.69887,9.53935,7.29E-03,0.2327,4
754.908,92.61,-3.77042,9.52495,-2.88E-02,0.2294,4
761.227,93.24,-3.84444,9.51631,-2.48E-02,0.22604,4
767.528,93.87,-3.91355,9.5048,-1.97E-02,0.22266,4
773.826,94.5,-3.99631,9.50096,-0.14585,0.21925,4
780.145,95.13,-4.07802,9.4952,-3.72E-02,0.2158,4
786.453,95.76,-4.16336,9.48176,-3.03E-02,0.21233,4
792.752,96.39,-4.24446,9.47409,-4.22E-03,0.20884,4
799.068,97.02,-4.32662,9.46449,-1.04E-02,0.20531,4
805.368,97.65,-4.41956,9.45969,-4.48E-02,0.20178,4
811.679,98.28,-4.51509,9.44626,-3.64E-03,0.19823,4
817.984,98.91,-4.6143,9.44434,-7.00E-03,0.19467,4
824.29,99.54,-4.71555,9.43282,-2.70E-02,0.1911,4
830.594,100.17,-4.83358,9.42707,-3.22E-02,0.18753,4
836.906,100.8,-4.95239,9.42803,-5.52E-02,0.18395,4
843.216,101.43,-5.08207,9.41939,-7.51E-03,0.18036,4
849.519,102.06,-5.22147,9.41267,-8.83E-03,0.17679,4
855.824,102.69,-5.36027,9.41651,8.02E-03,0.17322,4
862.137,103.32,-5.5034,9.40691,1.98E-02,0.16965,4
868.426,103.95,-5.65981,9.40499,-5.46E-02,0.16611,4
874.741,104.58,-5.82311,9.40115,1.55E-02,0.16256,4
881.062,105.21,-5.99173,9.39252,-6.59E-02,0.15903,4
887.373,105.84,-6.16093,9.39252,2.08E-02,0.15552,4
893.677,106.47,-6.35433,9.38196,-1.22E-02,0.15203,4
900.021,107.12,-6.37347,9.38963,6.11E-02,0.14854,5
895.746,107.9075,-3.5951,9.37908,-5.41E-02,0.15089,5
880.058,108.695,-2.54448,9.38868,3.77E-02,0.15959,5
862.618,109.4825,-2.19908,9.3762,5.15E-02,0.16938,5
845.497,110.27,-1.94207,9.37812,-3.04E-02,0.17907,5
828.651,111.0575,-1.71773,9.38579,7.17E-02,0.18863,5
811.967,111.845,-1.52383,9.3762,9.08E-02,0.19807,5
795.416,112.6325,-1.34452,9.381,5.08E-02,0.20735,5
778.988,113.42,-1.19998,9.3762,2.77E-02,0.21643,5
762.666,114.2075,-1.06663,9.381,-4.76E-02,0.22527,5
746.412,114.995,-0.95164,9.38292,9.51E-04,0.23384,5
730.247,115.7825,-0.84546,9.38772,1.03E-02,0.24206,5
714.142,116.57,-0.74399,9.38868,-3.14E-02,0.24992,5
698.097,117.3575,-0.65397,9.39252,1.77E-02,0.25736,5
682.113,118.145,-0.56455,9.39731,1.51E-02,0.26434,5
666.163,118.9325,-0.49434,9.39635,-1.83E-02,0.27082,5
650.275,119.72,-0.42349,9.4002,2.95E-04,0.27675,5
634.4,120.5075,-0.35505,9.40115,2.08E-02,0.28212,5
618.546,121.295,-0.29773,9.40883,2.12E-02,0.28688,5
602.739,122.0825,-0.23457,9.40499,3.83E-03,0.29099,5
586.898,122.87,-0.18618,9.41459,1.16E-02,0.29445,5
571.098,123.6575,-0.12472,9.42418,3.40E-02,0.29722,5
555.31,124.445,-6.57E-02,9.41939,1.67E-02,0.29927,5
539.53,125.2325,-1.40E-02,9.42514,1.97E-02,0.3006,5
527.53,125.8325,2.55E-02,9.42131,-0.15997,0.30112,5