Folder: Reaction-Rate/cffp2 (part 3)

File: char_NF_23_06_10.csv
#FILE:                       ,char_NF_23_06_10.dsu            ,,,,
#FORMAT:                     ,NETZSCH5                        ,,,,
#IDENTITY:                   ,char NF                         ,,,,
#DECIMAL:                    ,POINT                           ,,,,
#SEPARATOR:                  ,COMMA                           ,,,,
#MTYPE:                      ,DTA                             ,,,,
#MSUBTYPE:                   ,                                ,,,,
#INSTRUMENT:                 ,NETZSCH STA 449 C               ,,,,
#PROJECT:                    ,Torrefaction                    ,,,,
#DATE/TIME:                  ,23/06/2010 16:36:56             ,,,,
#CORR. FILE:                 ,char_GF_23_06_10.bsu            ,,,,
#LABORATORY:                 ,Sustainable Research Energ      ,,,,
#OPERATOR:                   ,EMF                             ,,,,
#REMARK:                     ,                                ,,,,
#SAMPLE:                     ,nonisoth oxid with init drying  ,,,,
#SAMPLE MASS /mg:            ,10.33,,,,
#MATERIAL:                   ,Alumina                         ,,,,
#REFERENCE:                  ,Alumina                         ,,,,
#REFERENCE MASS /mg:         ,0,,,,
#TYPE OF CRUCIBLE:           ,DTA/TG crucible Al2O3           ,,,,
#SAMPLE CRUCIBLE MASS /mg:   ,0,,,,
#REFERENCE CRUCIBLE MASS /mg:,0,,,,
#CORR. CODE:                 ,20,,,,
#EXO:                        ,-1,,,,
#RANGE:                      ,30.0....900.0/-20.0....10.0K/min,,,,
#SEGMENT:                    ,S1-5/5                          ,,,,
,,,,,
##Temp./?C,Time/min,DTA/(mW/mg),Mass/%,Sensit./(‘V/mW),Segment
34.349,0.00E+00,4.81E-02,100,9.05E-02,1
34.364,0.6,6.69E-02,99.99322,9.05E-02,1
34.631,1.2,-2.40E-02,99.95741,9.06E-02,1
37.028,1.8,-0.31927,99.93998,9.17E-02,1
42.062,2.4,-0.63028,99.94288,9.41E-02,1
48.834,3,-0.9017,99.94579,9.73E-02,1
56.531,3.6,-1.06847,99.9274,0.10102,1
64.531,4.2,-1.17351,99.86738,0.10497,1
72.404,4.8,-1.23084,99.82091,0.10893,1
80.036,5.4,-1.28795,99.75702,0.11284,1
87.423,6,-1.33474,99.68538,0.11668,1
94.584,6.6,-1.39233,99.60407,0.12046,1
101.44,7.2,-1.42825,99.5363,0.12412,2
107.566,7.8,-1.23255,99.46467,0.12743,2
111.893,8.4,-0.95749,99.39109,0.12979,2
114.395,9,-0.72052,99.32623,0.13116,2
115.434,9.6,-0.53277,99.28558,0.13173,2
115.372,10.2,-0.39968,99.25363,0.1317,2
114.535,10.8,-0.30242,99.22459,0.13124,2
113.128,11.4,-0.22631,99.2091,0.13047,2
111.358,12,-0.16539,99.19555,0.1295,2
109.333,12.6,-0.12441,99.19167,0.12839,2
107.134,13.2,-9.42E-02,99.19555,0.1272,2
104.834,13.8,-6.24E-02,99.19942,0.12595,2
102.468,14.4,-5.05E-02,99.1878,0.12467,2
100.089,15,-2.75E-02,99.19651,0.12339,2
97.757,15.6,-1.19E-02,99.17909,0.12215,2
96.002,16.2,-9.68E-02,99.17328,0.12121,2
95.308,16.8,-0.18726,99.17715,0.12084,2
95.496,17.4,-0.26414,99.17812,0.12094,2
96.142,18,-0.29931,99.18103,0.12129,2
96.91,18.6,-0.31123,99.1849,0.12169,2
97.602,19.2,-0.29939,99.18683,0.12206,2
98.168,19.8,-0.29667,99.18587,0.12237,2
98.591,20.4,-0.28724,99.18103,0.12259,2
98.903,21,-0.27896,99.18103,0.12276,2
99.152,21.6,-0.26881,99.17715,0.12289,2
99.332,22.2,-0.26565,99.17135,0.12299,3
99.477,22.8,-0.27826,99.17425,0.12307,3
99.571,23.4,-0.30763,99.20136,0.12312,3
99.663,24,-0.31341,99.21297,0.12317,3
99.745,24.6,-0.30347,99.22362,0.12321,3
99.808,25.2,-0.29555,99.22362,0.12324,3
99.866,25.8,-0.27877,99.21878,0.12328,3
99.913,26.4,-0.28559,99.21684,0.1233,3
99.945,27,-0.28849,99.21297,0.12332,3
100.162,27.6,-0.38233,99.22072,0.12343,4
102.185,28.2,-0.82406,99.21297,0.12452,4
106.729,28.8,-1.39135,99.21297,0.12698,4
113.171,29.4,-1.89079,99.18877,0.13049,4
120.669,30,-2.23,99.16747,0.13463,4
128.57,30.6,-2.42219,99.14618,0.13903,4
136.429,31.2,-2.53638,99.12778,0.14346,4
144.042,31.8,-2.60868,99.11713,0.14779,4
151.327,32.4,-2.6533,99.08712,0.15196,4
158.295,33,-2.72306,99.06486,0.15598,4
165.022,33.6,-2.78911,99.03001,0.15988,4
171.561,34.2,-2.87358,99.00097,0.16368,4
177.992,34.8,-2.96594,98.96999,0.16744,4
184.322,35.4,-3.06784,98.93998,0.17115,4
190.608,36,-3.17416,98.90416,0.17483,4
196.849,36.6,-3.28244,98.90319,0.1785,4
203.016,37.2,-3.39321,98.88867,0.18212,4
209.152,37.8,-3.51176,98.88577,0.18573,4
215.246,38.4,-3.63148,98.88383,0.1893,4
221.299,39,-3.74673,98.87028,0.19284,4
227.337,39.6,-3.8736,98.86738,0.19637,4
233.348,40.2,-4.00322,98.8635,0.19986,4
239.362,40.8,-4.1358,98.84898,0.20335,4
245.34,41.4,-4.27291,98.84027,0.20679,4
251.325,42,-4.40761,98.82672,0.21022,4
257.307,42.6,-4.55389,98.82769,0.21361,4
263.274,43.2,-4.70119,98.81897,0.21698,4
269.225,43.8,-4.85424,98.81123,0.22031,4
275.172,44.4,-5.01323,98.7938,0.22361,4
281.112,45,-5.18554,98.76089,0.22687,4
287.054,45.6,-5.36379,98.74734,0.23009,4
292.984,46.2,-5.54755,98.70668,0.23326,4
298.936,46.8,-5.75476,98.66989,0.23641,4
304.889,47.4,-5.98341,98.61181,0.23951,4
310.835,48,-6.227,98.54985,0.24256,4
316.795,48.6,-6.49722,98.44821,0.24556,4
322.736,49.2,-6.79672,98.34753,0.2485,4
328.69,49.8,-7.13536,98.21104,0.2514,4
334.646,50.4,-7.51989,98.03872,0.25423,4
340.593,51,-7.95022,97.79768,0.257,4
346.544,51.6,-8.39387,97.52275,0.25971,4
352.485,52.2,-8.83583,97.22556,0.26234,4
358.439,52.8,-9.24744,96.85576,0.26491,4
364.388,53.4,-9.63434,96.48306,0.26741,4
370.309,54,-10.03394,96.13262,0.26982,4
376.271,54.6,-10.49469,95.40077,0.27218,4
382.251,55.2,-10.71643,94.96321,0.27447,4
388.208,55.8,-11.09518,94.36496,0.27666,4
394.142,56.4,-11.5969,93.697,0.27877,4
400.1,57,-12.15483,92.94288,0.28079,4
406.061,57.6,-12.74456,92.10358,0.28274,4
412.018,58.2,-13.37764,91.16263,0.28459,4
417.985,58.8,-14.09131,90.10068,0.28635,4
423.961,59.4,-14.88908,88.89932,0.28803,4
429.93,60,-15.76094,87.43756,0.28961,4
435.912,60.6,-16.5459,85.94482,0.2911,4
441.889,61.2,-17.30346,84.19071,0.29248,4
447.848,61.8,-18.12935,82.27202,0.29377,4
453.813,62.4,-18.92151,80.2333,0.29496,4
459.77,63,-19.61026,78.05034,0.29605,4
465.737,63.6,-20.21972,75.72798,0.29703,4
471.692,64.2,-20.74509,73.31075,0.29792,4
477.654,64.8,-21.19927,70.79961,0.2987,4
483.615,65.4,-21.61656,68.19555,0.29937,4
489.572,66,-22.07718,65.49371,0.29995,4
495.538,66.6,-22.60469,62.66215,0.30041,4
501.498,67.2,-23.18898,59.68345,0.30078,4
507.471,67.8,-23.80308,56.5576,0.30103,4
513.444,68.4,-24.42555,53.24589,0.30119,4
519.424,69,-24.99396,49.78606,0.30123,4
525.401,69.6,-25.5198,46.21007,0.30117,4
531.375,70.2,-25.97424,42.51404,0.301,4
537.346,70.8,-26.32098,38.74153,0.30073,4
543.305,71.4,-26.55471,34.92256,0.30035,4
549.255,72,-26.62604,31.07164,0.29987,4
555.215,72.6,-26.49827,27.29622,0.29928,4
561.173,73.2,-26.21739,23.58277,0.29859,4
567.129,73.8,-25.78766,19.95257,0.2978,4
573.081,74.4,-25.17187,16.46951,0.29691,4
579.027,75,-23.53585,13.14811,0.29592,4
584.835,75.6,-11.11352,11.5363,0.29485,4
590.465,76.2,-4.8187,11.51404,0.29373,4
596.364,76.8,-3.3476,11.48402,0.29247,4
602.413,77.4,-2.88017,11.4182,0.29107,4
608.49,78,-2.6874,11.35915,0.28957,4
614.561,78.6,-2.58294,11.30494,0.28798,4
620.615,79.2,-2.48401,11.26331,0.28629,4
626.652,79.8,-2.35104,11.21297,0.28452,4
632.68,80.4,-2.19054,11.16651,0.28267,4
638.702,81,-2.01862,11.0939,0.28072,4
644.708,81.6,-1.82918,11.02807,0.2787,4
650.738,82.2,-1.62049,10.93611,0.27659,4
656.74,82.8,-1.40893,10.83447,0.27441,4
662.759,83.4,-1.22058,10.7454,0.27214,4
668.764,84,-1.10782,10.67763,0.2698,4
[...]
746.827,91.8,-0.69666,10.36883,0.23362,4
752.842,92.4,-0.6736,10.36302,0.23048,4
758.841,93,-0.65531,10.33688,0.22731,4
764.849,93.6,-0.63499,10.34656,0.2241,4
770.857,94.2,-0.60815,10.30784,0.22086,4
776.857,94.8,-0.58446,10.3088,0.2176,4
782.867,95.4,-0.55561,10.30494,0.21431,4
788.868,96,-0.53337,10.29041,0.21099,4
794.871,96.6,-0.49881,10.26524,0.20766,4
800.868,97.2,-0.4679,10.27299,0.20431,4
806.879,97.8,-0.4348,10.24298,0.20093,4
812.882,98.4,-0.39569,10.24298,0.19755,4
818.892,99,-0.3621,10.23911,0.19416,4
824.908,99.6,-0.33684,10.23524,0.19076,4
830.909,100.2,-0.30033,10.22362,0.18735,4
836.922,100.8,-0.26775,10.19555,0.18394,4
842.929,101.4,-0.2346,10.18781,0.18053,4
848.924,102,-0.21178,10.17522,0.17713,4
854.942,102.6,-0.18389,10.15101,0.17372,4
860.934,103.2,-0.16411,10.14424,0.17033,4
866.945,103.8,-0.13845,10.13456,0.16694,4
872.96,104.4,-0.11097,10.13263,0.16356,4
878.949,105,-9.89E-02,10.12004,0.16021,4
884.957,105.6,-9.72E-02,10.11713,0.15686,4
890.964,106.2,-6.62E-02,10.09584,0.15353,4
896.962,106.8,-6.04E-02,10.09583,0.15022,4
900.023,107.495,-0.12464,10.0939,0.14854,5
889.282,108.245,9.32E-02,10.04356,0.15446,5
873.134,108.995,0.13917,10.0726,0.16346,5
856.668,109.745,0.138,10.29429,0.17274,5
840.512,110.495,9.11E-02,10.09584,0.1819,5
824.545,111.245,6.02E-02,10.07454,0.19096,5
808.717,111.995,2.85E-02,10.07648,0.1999,5
792.986,112.745,-1.57E-02,10.06776,0.20871,5
777.362,113.495,-4.62E-02,10.02614,0.21732,5
761.841,114.245,-7.40E-02,10.11907,0.22571,5
746.379,114.995,-9.52E-02,10.07164,0.23385,5
730.989,115.745,-0.11766,10.06679,0.24169,5
715.666,116.495,-0.13208,10.05711,0.24919,5
700.383,117.245,-0.14729,10.06389,0.25633,5
685.157,117.995,-0.16009,10.05518,0.26305,5
669.966,118.745,-0.17613,10.07647,0.26932,5
654.824,119.495,-0.18738,10.06486,0.27511,5
639.699,120.245,-0.19981,10.07164,0.28039,5
624.618,120.995,-0.20625,10.07454,0.28513,5
609.531,121.745,-0.21457,10.06679,0.28931,5
594.461,122.495,-0.22476,10.06776,0.29289,5
579.407,123.245,-0.22291,10.07357,0.29585,5
564.37,123.995,-0.2301,10.06098,0.29818,5
549.339,124.745,-0.23446,10.08518,0.29986,5
534.324,125.495,-0.2401,10.08809,0.30088,5
519.31,126.245,-0.24223,10.07938,0.30123,5
504.304,126.995,-0.23806,10.08034,0.30091,5
489.309,127.745,-0.24127,10.08712,0.29992,5
474.319,128.495,-0.23652,10.07938,0.29827,5
459.332,129.245,-0.23509,10.08906,0.29597,5
444.336,129.995,-0.23332,10.09293,0.29302,5
429.352,130.745,-0.22616,10.08712,0.28946,5
414.354,131.495,-0.21505,10.08713,0.28529,5
399.408,132.245,-0.20918,10.0968,0.28056,5
384.483,132.995,-0.20527,10.11036,0.2753,5
369.751,133.745,-0.19075,10.09971,0.2696,5
355.399,134.495,-0.17765,10.10262,0.26361,5
341.518,135.245,-0.16687,10.10552,0.25742,5
328.132,135.995,-0.16479,10.09971,0.25113,5
315.322,136.745,-0.15322,10.11423,0.24482,5
303.04,137.495,-0.14254,10.09293,0.23855,5
291.324,138.245,-0.1307,10.11423,0.23238,5
280.067,138.995,-0.12138,10.10842,0.2263,5
269.277,139.745,-0.11862,10.11133,0.22034,5
258.928,140.495,-0.11055,10.10746,0.21454,5
248.996,141.245,-9.96E-02,10.12585,0.20889,5
239.465,141.995,-8.69E-02,10.10939,0.20341,5
230.308,142.745,-7.76E-02,10.12488,0.19809,5
221.545,143.495,-6.96E-02,10.11907,0.19299,5
213.081,144.245,-5.86E-02,10.12487,0.18803,5
204.975,144.995,-4.95E-02,10.11811,0.18327,5
197.158,145.745,-3.45E-02,10.11036,0.17868,5
189.634,146.495,-3.40E-02,10.12391,0.17426,5
182.431,147.245,-1.71E-02,10.12778,0.17004,5
175.502,147.995,-4.37E-03,10.12779,0.16598,5
168.872,148.745,8.21E-03,10.13069,0.16211,5
162.496,149.495,1.76E-02,10.14134,0.15841,5
156.351,150.245,2.66E-02,10.14327,0.15485,5
154.163,150.52,3.31E-02,10.12681,0.15359,5