Folder: Reaction-Rate/cffp (part 7)

File: f
Failed on ##Temp./øC,Time/min,DTA/(mW/mg),Mass/%,Sensit./(æV/mW),Segment

 30.99300 0.0000e+000 100 0
 31.02800     0.50000 100.001 50
 31.70400     1.00000 100.01 100
 34.19900     1.50000 100.011 150
 38.41700     2.00000  99.99703 200
 43.88200     2.50000  99.98515 250
 50.04900     3.00000  99.97327 300
 56.57700     3.50000  99.93960 350
 63.17300     4.00000  99.90099 400
 69.68400     4.50000  99.83267 450
 76.02000     5.00000  99.76238 500
 82.15400     5.50000  99.68119 550
 88.15500     6.00000  99.59109 600
 94.02500     6.50000  99.50297 650
 99.72900     7.00000  99.41881 700
105.089     7.50000  99.33168 750
109.519     8.00000  99.25050 800
112.644     8.50000  99.16634 850
114.516     9.00000  99.09802 900
115.366     9.50000  99.04158 950
115.425    10.00000  98.98911 1000
114.857    10.50000  98.94851 1050
113.845    11.00000  98.92376 1100
112.494    11.50000  98.89604 1150
110.898    12.00000  98.87822 1200
109.113    12.50000  98.86634 1250
107.221    13.00000  98.86634 1300
105.243    13.50000  98.85842 1350
103.202    14.00000  98.85446 1400
101.139    14.50000  98.84158 1450
 99.08200    15.00000  98.84356 1500
 97.29100    15.50000  98.84455 1550
 96.17300    16.00000  98.84653 1600
 95.79700    16.50000  98.83267 1650
 95.96800    17.00000  98.84356 1700
 96.43800    17.50000  98.83465 1750
 97.02800    18.00000  98.83564 1800
 97.58500    18.50000  98.84257 1850
 98.08100    19.00000  98.83663 1900
 98.46700    19.50000  98.82673 1950
 98.78100    20.00000  98.83069 2000
 99.01000    20.50000  98.82475 2050
 99.20600    21.00000  98.82475 2100
 99.35500    21.50000  98.82574 2150
 99.49100    22.00000  98.81881 2200
 99.57800    22.50000  98.80198 2250
 99.65800    23.00000  98.89802 2300
 99.70200    23.50000  98.97822 2350
 99.75400    24.00000  99.00099 2400
 99.80400    24.50000  99.00891 2450
 99.83600    25.00000  99.00495 2500
 99.88000    25.50000  98.98812 2550
 99.91400    26.00000  98.96634 2600
 99.94400    26.50000  98.94257 2650
 99.95200    27.00000  98.90495 2700
100.062    27.50000  98.88713 2750
101.237    28.00000  98.85545 2800
104.15    28.50000  98.83168 2850
108.646    29.00000  98.81584 2900
114.29    29.50000  98.79703 2950
120.572    30.00000  98.77426 3000
127.178    30.50000  98.74752 3050
133.779    31.00000  98.72574 3100
140.252    31.50000  98.70000 3150
146.511    32.00000  98.66040 3200
152.539    32.50000  98.62871 3250
158.351    33.00000  98.59901 3300
163.974    33.50000  98.55941 3350
169.453    34.00000  98.51089 3400
174.846    34.50000  98.46733 3450
180.158    35.00000  98.42871 3500
185.424    35.50000  98.39109 3550
190.646    36.00000  98.35842 3600
195.832    36.50000  98.34455 3650
200.976    37.00000  98.31683 3700
206.086    37.50000  98.30792 3750
211.176    38.00000  98.29505 3800
216.248    38.50000  98.28218 3850
221.289    39.00000  98.26733 3900
226.305    39.50000  98.25347 3950
231.317    40.00000  98.24356 4000
236.326    40.50000  98.23267 4050
241.325    41.00000  98.21881 4100
246.304    41.50000  98.19208 4150
251.299    42.00000  98.17921 4200
256.261    42.50000  98.16634 4250
261.246    43.00000  98.14752 4300
266.213    43.50000  98.11980 4350
271.173    44.00000  98.09604 4400
276.134    44.50000  98.06040 4450
281.093    45.00000  98.01485 4500
286.038    45.50000  97.97723 4550
290.992    46.00000  97.91881 4600
295.952    46.50000  97.84851 4650
300.905    47.00000  97.76337 4700
305.861    47.50000  97.67426 4750
310.814    48.00000  97.55347 4800
315.772    48.50000  97.40495 4850
320.735    49.00000  97.22772 4900
325.699    49.50000  97.01485 4950
330.659    50.00000  96.76634 5000
335.625    50.50000  96.46436 5050
340.591    51.00000  96.11683 5100
345.556    51.50000  95.70792 5150
350.512    52.00000  95.26634 5200
355.473    52.50000  94.74356 5250
360.433    53.00000  94.15842 5300
365.392    53.50000  93.51089 5350
370.352    54.00000  92.78515 5400
375.32    54.50000  91.97624 5450
380.29    55.00000  91.09010 5500
385.247    55.50000  90.09802 5550
390.219    56.00000  89.01485 5600
395.183    56.50000  87.82475 5650
400.156    57.00000  86.50396 5700
405.128    57.50000  84.95149 5750
410.092    58.00000  83.35941 5800
415.074    58.50000  81.62673 5850
420.037    59.00000  79.75941 5900
425.007    59.50000  77.73366 5950
429.965    60.00000  75.55149 6000
434.941    60.50000  73.26337 6050
439.912    61.00000  70.82673 6100
444.875    61.50000  68.30396 6150
449.832    62.00000  65.70099 6200
454.804    62.50000  63.00693 6250
459.758    63.00000  60.23565 6300
464.706    63.50000  57.42178 6350
469.669    64.00000  54.52772 6400
474.634    64.50000  51.60891 6450
479.584    65.00000  48.65347 6500
484.543    65.50000  45.68911 6550
489.51    66.00000  42.68317 6600
494.459    66.50000  39.70693 6650
499.416    67.00000  36.71188 6700
504.377    67.50000  33.71683 6750
509.343    68.00000  30.78515 6800
514.301    68.50000  27.88812 6850
519.245    69.00000  25.10396 6900
524.187    69.50000  22.47921 6950
529.1    70.00000  20.36733 7000
533.933    70.50000  19.52871 7050
538.731    71.00000  19.36040 7100
543.619    71.50000  19.32673 7150
548.635    72.00000  19.27921 7200
553.664    72.50000  19.24456 7250
558.706    73.00000  19.23565 7300
563.765    73.50000  19.16435 7350
568.792    74.00000  19.17228 7400
573.822    74.50000  19.14752 7450
578.835    75.00000  19.10495 7500
583.855    75.50000  19.07921 7550
588.867    76.00000  19.03070 7600
593.875    76.50000  18.98713 7650
598.879    77.00000  18.91683 7700
603.89    77.50000  18.82476 7750
608.884    78.00000  18.73168 7800
613.886    78.50000  18.60297 7850
618.891    79.00000  18.49406 7900
623.883    79.50000  18.39604 7950
628.889    80.00000  18.31486 8000
633.882    80.50000  18.24158 8050
638.879    81.00000  18.16634 8100
643.88    81.50000  18.11287 8150
648.867    82.00000  18.00100 8200
653.861    82.50000  17.92574 8250
658.86    83.00000  17.80594 8300
663.838    83.50000  17.68416 8350
668.834    84.00000  17.57624 8400
673.825    84.50000  17.44950 8450
678.812    85.00000  17.32673 8500
683.793    85.50000  17.27723 8550
688.786    86.00000  17.18020 8600
693.787    86.50000  17.15347 8650
698.777    87.00000  17.12277 8700
703.788    87.50000  17.10099 8750
708.776    88.00000  17.06238 8800
713.786    88.50000  17.02772 8850
718.787    89.00000  16.99208 8900
723.795    89.50000  16.98812 8950
728.792    90.00000  16.96139 9000
733.799    90.50000  16.93762 9050
738.797    91.00000  16.93960 9100
743.792    91.50000  16.93169 9150
748.808    92.00000  16.88218 9200
753.803    92.50000  16.87723 9250
758.816    93.00000  16.85050 9300
763.812    93.50000  16.83268 9350
768.817    94.00000  16.82377 9400
773.821    94.50000  16.81584 9450
778.827    95.00000  16.78417 9500
783.829    95.50000  16.76931 9550
788.842    96.00000  16.75446 9600
793.843    96.50000  16.72278 9650
798.851    97.00000  16.69406 9700
803.85    97.50000  16.68119 9750
808.866    98.00000  16.67228 9800
813.862    98.50000  16.64753 9850
818.867    99.00000  16.62179 9900
823.89    99.50000  16.60297 9950
828.89   100  16.58119 10000
833.904   100.5  16.56337 10050
838.907   101  16.55941 10100
843.918   101.5  16.54555 10150
848.916   102  16.52278 10200
853.926   102.5  16.49208 10250
858.925   103  16.48912 10300
863.939   103.5  16.49307 10350
868.933   104  16.46931 10400
873.941   104.5  16.46040 10450
878.944   105  16.45149 10500
883.934   105.5  16.43466 10550
888.949   106  16.42476 10600
893.96   106.5  16.41386 10650
898.968   107  16.38911 10700
899.053   107.63  16.39307 10750
889.24   108.255  16.34852 10800
875.868   108.88  16.41089 10850
862.105   109.505  16.16832 10900
848.541   110.13  16.34456 10950
835.177   110.755  16.42079 11000
821.898   111.38  16.39505 11050
808.711   112.005  16.35644 11100
795.593   112.63  16.34257 11150
782.568   113.255  16.33861 11200
769.593   113.88  16.35941 11250
756.676   114.505  16.37723 11300
743.826   115.13  16.35446 11350
730.993   115.755  16.35544 11400
718.221   116.38  16.34158 11450
705.484   117.005  16.35545 11500
692.764   117.63  16.36436 11550
680.093   118.255  16.34951 11600
667.462   118.88  16.37327 11650
654.838   119.505  16.36238 11700
642.254   120.13  16.35941 11750
629.674   120.755  16.35742 11800
617.106   121.38  16.35248 11850
604.549   122.005  16.37525 11900
591.992   122.63  16.33961 11950
579.448   123.255  16.35743 12000
566.911   123.88  16.35347 12050
554.387   124.505  16.36337 12100
541.859   125.13  16.35545 12150
529.364   125.755  16.35842 12200
516.856   126.38  16.37921 12250
504.37   127.005  16.35842 12300
491.858   127.63  16.37624 12350
479.373   128.255  16.37030 12400
466.875   128.88  16.36733 12450
454.375   129.505  16.36139 12500
441.895   130.13  16.37030 12550
429.397   130.755  16.35247 12600
416.894   131.38  16.37723 12650
404.409   132.005  16.37723 12700
391.965   132.63  16.36436 12750
379.59   133.255  16.36238 12800
367.352   133.88  16.35841 12850
355.404   134.505  16.35842 12900
343.766   135.13  16.36832 12950
332.501   135.755  16.35446 13000
321.62   136.38  16.36733 13050
311.111   137.005  16.36931 13100
300.985   137.63  16.35743 13150
291.213   138.255  16.35446 13200
281.789   138.88  16.36634 13250
272.687   139.505  16.35941 13300
263.898   140.13  16.35743 13350
255.398   140.755  16.37822 13400
247.198   141.38  16.34852 13450
239.278   142.005  16.33960 13500
231.622   142.63  16.35941 13550
224.205   143.255  16.36238 13600
217.046   143.88  16.35446 13650
210.121   144.505  16.35644 13700
203.417   145.13  16.34555 13750
196.924   145.755  16.35050 13800
190.633   146.38  16.35743 13850
184.563   147.005  16.36337 13900
178.688   147.63  16.36634 13950
173.022   148.255  16.36931 14000
167.545   148.88  16.36436 14050
162.248   149.505  16.37822 14100
157.121   150.13  16.36238 14150
153.929   150.53  16.36931 14182