Folder: Reaction-Rate/cffp

Note: cffp/filelist.txt
char_GF_23_06_10.csv
char_GF_24_06_10.csv
char_GF_reground_25_10_10.csv
char_LF_24_06_10.csv
char_LF_reground_22_10_10.csv
char_NF_24_06_10.csv
char_NF_reground_2_11_10.csv
char_GB_reground_1_11_10.csv
char_N2_reground_2_11_10.csv
char_GD_30_06_10.csv
char_QD_30_06_10.csv

File: char_GD_30_06_10.csv
#FILE:                       ,char_GD_30_06_10.dsu            ,,,,
#FORMAT:                     ,NETZSCH5                        ,,,,
#IDENTITY:                   ,char GD                         ,,,,
#DECIMAL:                    ,POINT                           ,,,,
#SEPARATOR:                  ,COMMA                           ,,,,
#MTYPE:                      ,DTA                             ,,,,
#MSUBTYPE:                   ,                                ,,,,
#INSTRUMENT:                 ,NETZSCH STA 449 C               ,,,,
#PROJECT:                    ,Torrefaction                    ,,,,
#DATE/TIME:                  ,30/06/2010 09:32:44             ,,,,
#CORR. FILE:                 ,char_GF_23_06_10.bsu            ,,,,
#LABORATORY:                 ,Sustainable Research Energ      ,,,,
#OPERATOR:                   ,Xiaomian Baxter                 ,,,,
#REMARK:                     ,                                ,,,,
#SAMPLE:                     ,nonisoth oxid with init drying  ,,,,
#SAMPLE MASS /mg:            ,10.18,,,,
#MATERIAL:                   ,char                            ,,,,
#REFERENCE:                  ,Alumina                         ,,,,
#REFERENCE MASS /mg:         ,0,,,,
#TYPE OF CRUCIBLE:           ,DTA/TG crucible Al2O3           ,,,,
#SAMPLE CRUCIBLE MASS /mg:   ,0,,,,
#REFERENCE CRUCIBLE MASS /mg:,0,,,,
#CORR. CODE:                 ,20,,,,
#EXO:                        ,-1,,,,
#RANGE:                      ,30.0....900.0/-20.0....10.0K/min,,99.0916,,
#SEGMENT:                    ,S1-5/5                          ,,99.0882,,
,,,10.4047,,
##Temp./øC,Time/min,DTA/(mW/mg),Mass/%,Sensit./(æV/mW),Segment
31.823,0.00E+00,0.14847,100,8.93E-02,1
31.847,0.6,0.15395,100.066,8.93E-02,1
32.885,1.2,-4.10E-02,100.079,8.98E-02,1
36.522,1.8,-0.53151,100.082,9.15E-02,1
42.39,2.4,-0.99948,100.052,9.42E-02,1
49.595,3,-1.38558,100.03,9.77E-02,1
57.389,3.6,-1.5978,99.96857,0.10144,1
65.335,4.2,-1.73629,99.8831,0.10537,1
73.103,4.8,-1.79209,99.78782,0.10929,1
80.607,5.4,-1.85602,99.68075,0.11313,1
87.909,6,-1.90178,99.56876,0.11693,1
94.978,6.6,-1.96601,99.46267,0.12067,1
101.791,7.2,-2.00914,99.37132,0.12431,2
107.834,7.8,-1.75169,99.2947,0.12758,2
112.11,8.4,-1.35351,99.21807,0.12991,2
114.552,9,-0.98419,99.16798,0.13125,2
115.506,9.6,-0.69329,99.1277,0.13177,2
115.363,10.2,-0.46525,99.1002,0.1317,2
114.419,10.8,-0.2986,99.07466,0.13118,2
112.922,11.4,-0.17615,99.05796,0.13036,2
111.054,12,-7.12E-02,99.0501,0.12933,2
108.913,12.6,7.66E-03,99.04322,0.12817,2
106.625,13.2,6.58E-02,99.04912,0.12692,2
104.221,13.8,0.11045,99.05206,0.12562,2
101.759,14.4,0.13337,99.04322,0.12429,2
99.292,15,0.15777,99.04617,0.12297,2
97.132,15.6,0.12399,99.0501,0.12181,2
95.955,16.2,-1.11E-02,99.05599,0.12119,2
95.76,16.8,-0.16023,99.05599,0.12108,2
96.191,17.4,-0.27329,99.05206,0.12131,2
96.873,18,-0.32697,99.05501,0.12167,2
97.561,18.6,-0.3451,99.06582,0.12204,2
98.149,19.2,-0.33418,99.05501,0.12236,2
98.591,19.8,-0.32953,99.05108,0.12259,2
98.936,20.4,-0.32103,99.04715,0.12278,2
99.19,21,-0.30669,99.0501,0.12291,2
99.378,21.6,-0.29446,99.0501,0.12301,2
99.519,22.2,-0.28929,99.0609,0.12309,3
99.624,22.8,-0.30711,99.01965,0.12315,3
99.7,23.4,-0.33292,99.1002,0.12319,3
99.759,24,-0.3448,99.11493,0.12322,3
99.829,24.6,-0.33573,99.11493,0.12326,3
99.876,25.2,-0.33167,99.11198,0.12328,3
99.919,25.8,-0.32066,99.11002,0.1233,3
99.955,26.4,-0.31961,99.11002,0.12332,3
99.974,27,-0.31859,99.1002,0.12333,3
100.184,27.6,-0.44263,99.11198,0.12345,4
102.223,28.2,-1.03523,99.09725,0.12454,4
106.716,28.8,-1.84517,99.09234,0.12697,4
113.135,29.4,-2.56078,99.06778,0.13047,4
120.643,30,-3.04666,99.04715,0.13461,4
128.565,30.6,-3.32081,99.02063,0.13903,4
136.445,31.2,-3.46798,98.99411,0.14347,4
144.08,31.8,-3.53811,98.97348,0.14781,4
151.362,32.4,-3.58966,98.9332,0.15198,4
158.33,33,-3.65228,98.90668,0.156,4
165.061,33.6,-3.7229,98.86837,0.1599,4
171.6,34.2,-3.8261,98.83301,0.1637,4
178.031,34.8,-3.92505,98.80648,0.16746,4
184.381,35.4,-4.03703,98.78094,0.17118,4
190.655,36,-4.1613,98.75246,0.17486,4
196.892,36.6,-4.28982,98.73772,0.17853,4
203.058,37.2,-4.41348,98.70727,0.18215,4
209.168,37.8,-4.54969,98.68762,0.18574,4
215.243,38.4,-4.6846,98.66798,0.1893,4
221.305,39,-4.82452,98.64244,0.19284,4
227.317,39.6,-4.97086,98.61886,0.19636,4
233.343,40.2,-5.11347,98.5943,0.19986,4
239.339,40.8,-5.26167,98.57367,0.20333,4
245.335,41.4,-5.40477,98.54126,0.20679,4
251.316,42,-5.56089,98.51375,0.21021,4
257.28,42.6,-5.7215,98.48134,0.2136,4
263.249,43.2,-5.88282,98.45088,0.21697,4
269.214,43.8,-6.0473,98.41945,0.22031,4
275.153,44.4,-6.22792,98.36346,0.2236,4
281.104,45,-6.41605,98.31041,0.22686,4
287.035,45.6,-6.60597,98.25737,0.23008,4
292.978,46.2,-6.80483,98.19548,0.23326,4
298.926,46.8,-7.01666,98.10904,0.2364,4
304.874,47.4,-7.24634,98.02456,0.2395,4
310.828,48,-7.47559,97.92927,0.24255,4
316.779,48.6,-7.72279,97.81238,0.24555,4
322.736,49.2,-7.98738,97.68566,0.2485,4
328.684,49.8,-8.27021,97.53831,0.25139,4
334.632,50.4,-8.5568,97.36149,0.25422,4
340.572,51,-8.84935,97.15521,0.25699,4
346.518,51.6,-9.15105,96.91749,0.25969,4
352.467,52.2,-9.44325,96.68566,0.26233,4
358.413,52.8,-9.74055,96.39587,0.2649,4
364.363,53.4,-10.02785,96.0835,0.2674,4
370.306,54,-10.31194,95.7554,0.26982,4
376.263,54.6,-10.59081,95.39882,0.27218,4
382.209,55.2,-10.85451,95.02456,0.27445,4
388.163,55.8,-11.11584,94.62475,0.27665,4
394.112,56.4,-11.38235,94.21022,0.27876,4
400.07,57,-11.6491,93.76523,0.28078,4
406.028,57.6,-11.93348,93.30452,0.28273,4
411.978,58.2,-12.24032,92.8055,0.28458,4
417.946,58.8,-12.5795,92.27112,0.28634,4
423.908,59.4,-12.94824,91.68664,0.28801,4
429.873,60,-13.35072,91.05403,0.28959,4
435.847,60.6,-13.79552,90.36739,0.29108,4
441.814,61.2,-14.27334,89.59529,0.29247,4
447.777,61.8,-14.79509,88.74558,0.29376,4
453.751,62.4,-15.35978,87.81631,0.29495,4
459.726,63,-15.97719,86.76817,0.29604,4
465.697,63.6,-16.64126,85.59529,0.29703,4
471.692,64.2,-17.35285,84.29666,0.29792,4
477.659,64.8,-18.11111,82.85265,0.2987,4
483.65,65.4,-18.90667,81.25049,0.29938,4
489.628,66,-19.72978,79.33202,0.29995,4
495.603,66.6,-20.56926,77.34578,0.30042,4
501.587,67.2,-21.40625,75.19941,0.30078,4
507.557,67.8,-22.22916,72.82908,0.30104,4
513.532,68.4,-23.0229,70.27898,0.30119,4
519.507,69,-23.80511,67.54519,0.30123,4
525.463,69.6,-24.49707,64.62083,0.30117,4
531.428,70.2,-25.19777,61.54224,0.301,4
537.396,70.8,-25.93652,58.26817,0.30072,4
543.35,71.4,-26.69365,54.83301,0.30035,4
549.309,72,-27.46876,51.20138,0.29986,4
555.287,72.6,-28.15393,47.38409,0.29927,4
561.256,73.2,-28.65303,43.47741,0.29858,4
567.233,73.8,-28.90565,39.47151,0.29779,4
573.179,74.4,-28.94293,35.44597,0.29689,4
579.133,75,-28.79575,31.44401,0.2959,4
585.083,75.6,-28.49678,27.49411,0.29481,4
591.03,76.2,-28.19948,23.60707,0.29362,4
596.988,76.8,-27.79033,19.84185,0.29233,4
602.945,77.4,-27.02356,16.17977,0.29094,4
608.875,78,-24.25689,12.81926,0.28947,4
614.69,78.6,-11.81234,11.05108,0.28794,4
620.335,79.2,-5.26192,11.0275,0.28637,4
626.239,79.8,-3.79308,10.92829,0.28465,4
632.301,80.4,-3.33955,10.80059,0.28279,4
638.396,81,-3.15561,10.66994,0.28082,4
644.469,81.6,-3.05627,10.59529,0.27878,4
650.529,82.2,-2.96474,10.53144,0.27666,4
656.585,82.8,-2.88204,10.4558,0.27446,4
662.61,83.4,-2.81625,10.40668,0.2722,4
668.653,84,-2.75347,10.37329,0.26984,4
[...]
740.812,91.2,-2.12515,10.22201,0.23672,4
746.816,91.8,-2.1223,10.22495,0.23363,4
752.826,92.4,-2.14,10.22888,0.23049,4
758.835,93,-2.15638,10.22102,0.22731,4
764.84,93.6,-2.17956,10.22495,0.22411,4
770.853,94.2,-2.19043,10.22594,0.22087,4
776.852,94.8,-2.2024,10.20137,0.2176,4
782.857,95.4,-2.21446,10.20629,0.21431,4
788.863,96,-2.22424,10.20138,0.21099,4
794.87,96.6,-2.22628,10.17878,0.20766,4
800.874,97.2,-2.246,10.19843,0.2043,4
806.872,97.8,-2.26406,10.18861,0.20094,4
812.891,98.4,-2.2737,10.18272,0.19755,4
818.894,99,-2.3014,10.19745,0.19416,4
824.917,99.6,-2.32451,10.19352,0.19075,4
830.925,100.2,-2.35827,10.1837,0.18734,4
836.93,100.8,-2.39395,10.19254,0.18393,4
842.937,101.4,-2.43916,10.18468,0.18052,4
848.938,102,-2.48672,10.18861,0.17712,4
854.951,102.6,-2.54114,10.17878,0.17371,4
860.955,103.2,-2.60404,10.18075,0.17032,4
866.952,103.8,-2.65164,10.18075,0.16694,4
872.963,104.4,-2.72217,10.18566,0.16356,4
878.967,105,-2.78542,10.1837,0.1602,4
884.972,105.6,-2.85816,10.19254,0.15685,4
890.98,106.2,-2.92338,10.16897,0.15352,4
896.98,106.8,-3.00002,10.19254,0.15021,4
899.997,107.505,-1.7027,10.18762,0.14856,5
889.22,108.255,5.80E-02,10.15128,0.15449,5
873.107,109.005,0.43338,10.1945,0.16348,5
856.667,109.755,0.43147,10.43026,0.17274,5
840.516,110.505,0.36048,10.22692,0.1819,5
824.56,111.255,0.29259,10.22299,0.19095,5
808.717,112.005,0.23403,10.21612,0.1999,5
793.009,112.755,0.16239,10.22103,0.2087,5
777.399,113.505,0.11697,10.19352,0.2173,5
761.876,114.255,6.15E-02,10.29274,0.22569,5
746.41,115.005,2.63E-02,10.26032,0.23384,5
731.026,115.755,-1.68E-02,10.25245,0.24167,5
715.704,116.505,-4.29E-02,10.24656,0.24918,5
700.421,117.255,-7.09E-02,10.27505,0.25631,5
685.196,118.005,-9.76E-02,10.27898,0.26303,5
670.009,118.755,-0.12539,10.30256,0.26931,5
654.864,119.505,-0.13926,10.29372,0.2751,5
639.759,120.255,-0.16248,10.31336,0.28037,5
624.655,121.005,-0.17399,10.31631,0.28512,5
609.577,121.755,-0.18336,10.32417,0.28929,5
594.513,122.505,-0.19705,10.33399,0.29288,5
579.439,123.255,-0.19922,10.33694,0.29585,5
564.403,124.005,-0.20137,10.33989,0.29818,5
549.368,124.755,-0.20802,10.37426,0.29986,5
534.36,125.505,-0.22201,10.22004,0.30088,5
519.373,126.255,-0.21034,10.35265,0.30123,5
504.348,127.005,-0.21341,10.4224,0.30091,5
489.369,127.755,-0.20511,10.34774,0.29993,5
474.358,128.505,-0.19801,10.389,0.29828,5
459.359,129.255,-0.1842,10.41257,0.29597,5
444.377,130.005,-0.17348,10.42142,0.29303,5
429.385,130.755,-0.15568,10.41945,0.28947,5
414.402,131.505,-0.136,10.42633,0.2853,5
399.447,132.255,-0.11685,10.45187,0.28058,5
384.513,133.005,-9.14E-02,10.46857,0.27531,5
369.754,133.755,-6.51E-02,10.46366,0.26961,5
355.3,134.505,-4.43E-02,10.4725,0.26357,5
341.342,135.255,-1.86E-02,10.47938,0.25734,5
327.899,136.005,-9.78E-03,10.48134,0.25102,5
315.012,136.755,8.03E-03,10.5,0.24467,5
302.659,137.505,2.42E-02,10.48331,0.23835,5
290.836,138.255,3.97E-02,10.50099,0.23212,5
279.505,139.005,6.25E-02,10.51474,0.22599,5
268.617,139.755,7.87E-02,10.51572,0.21998,5
258.187,140.505,0.10208,10.52554,0.21412,5
248.188,141.255,0.12372,10.61101,0.20842,5
238.605,142.005,0.14282,10.2338,0.20291,5
229.395,142.755,0.17216,10.56189,0.19757,5
220.482,143.505,0.18192,10.57367,0.19237,5
211.964,144.255,0.19594,10.56876,0.18738,5
203.784,145.005,0.21589,10.55305,0.18257,5
195.902,145.755,0.23117,10.55992,0.17794,5
188.349,146.505,0.24203,10.55993,0.17351,5
181.079,147.255,0.26191,10.57466,0.16925,5
174.107,148.005,0.27879,10.5776,0.16516,5
167.42,148.755,0.28857,10.57859,0.16127,5
160.984,149.505,0.31256,10.59627,0.15753,5
154.803,150.255,0.32779,10.59627,0.15396,5
152.585,150.53,0.33375,10.59332,0.15268,5

File: char_GD_30_06_10_again.csv
#FILE:                       ,char_GD_30_06_10.dsu
#FORMAT:                     ,NETZSCH5
#IDENTITY:                   ,char GD
#DECIMAL:                    ,POINT
#SEPARATOR:                  ,COMMA
#MTYPE:                      ,DTA
#MSUBTYPE:                   ,
#INSTRUMENT:                 ,NETZSCH STA 449 C
#PROJECT:                    ,Torrefaction
#DATE/TIME:                  ,30/06/2010 09:32:44
#CORR. FILE:                 ,char_GF_23_06_10.bsu
#LABORATORY:                 ,Sustainable Research Energ
#OPERATOR:                   ,Xiaomian Baxter
#REMARK:                     ,
#SAMPLE:                     ,nonisoth oxid with init drying
#SAMPLE MASS /mg:            ,10.180
#MATERIAL:                   ,char
#REFERENCE:                  ,Alumina
#REFERENCE MASS /mg:         ,0.000
#TYPE OF CRUCIBLE:           ,DTA/TG crucible Al2O3
#SAMPLE CRUCIBLE MASS /mg:   ,0.000
#REFERENCE CRUCIBLE MASS /mg:,0.000
#CORR. CODE:                 ,020
#EXO:                        ,-1
#RANGE:                      ,30.0....900.0/-20.0....10.0K/min
#SEGMENT:                    ,S1-5/5

##Temp./øC,Time/min,DTA/(mW/mg),Mass/%,Sensit./(æV/mW),Segment
 31.82300,0.0000e+000,     0.14847,100,8.9319e-002,1
 31.95800,    0.81000,     0.12227,100.072,8.9381e-002,1
 35.16300,    1.62000,    -0.36760,100.08,9.0855e-002,1
 42.72000,    2.43000,    -1.02515,100.052,9.4385e-002,1
 52.67400,    3.24000,    -1.48868,100.005,9.9144e-002,1
 63.32800,    4.05000,    -1.71175, 99.91356,    0.10437,1
 73.85500,    4.86000,    -1.80373, 99.77603,    0.10967,1
 83.92100,    5.67000,    -1.87738, 99.63065,    0.11485,1
 93.58200,    6.48000,    -1.94744, 99.48723,    0.11992,1
102.774,    7.29000,    -1.99176, 99.36248,    0.12484,2
110.224,    8.10000,    -1.55584, 99.25344,    0.12888,2
114.289,    8.91000,    -1.02836, 99.17387,    0.13111,2
115.549,    9.72000,    -0.64750, 99.12475,    0.13180,2
114.928,   10.53000,    -0.36522, 99.08350,    0.13146,2
113.09,   11.34000,    -0.18544, 99.06090,    0.13045,2
110.536,   12.15000,-3.9011e-002, 99.04322,    0.12905,2
107.555,   12.96000, 5.4926e-002, 99.05305,    0.12743,2
104.351,   13.77000,     0.10746, 99.05206,    0.12569,2
101.018,   14.58000,     0.15164, 99.04617,    0.12389,2
 97.80200,   15.39000,     0.14071, 99.05010,    0.12217,2
 95.95500,   16.20000,-1.1146e-002, 99.05599,    0.12119,2
 95.85800,   17.01000,    -0.20780, 99.05894,    0.12113,2
 96.66700,   17.82000,    -0.31514, 99.05796,    0.12156,2
 97.59200,   18.63000,    -0.34405, 99.06483,    0.12206,2
 98.33800,   19.44000,    -0.33591, 99.04912,    0.12246,2
 98.87500,   20.25000,    -0.32512, 99.04912,    0.12274,2
 99.20500,   21.06000,    -0.30668, 99.04912,    0.12292,2
 99.44600,   21.87000,    -0.29937, 99.04519,    0.12305,2
 99.61300,   22.68000,    -0.29616, 99.00196,    0.12314,3
 99.71200,   23.49000,    -0.33191, 99.11198,    0.12319,3
 99.79400,   24.30000,    -0.34475, 99.11984,    0.12324,3
 99.86400,   25.11000,    -0.32970, 99.11198,    0.12327,3
 99.93400,   25.92000,    -0.32263, 99.10806,    0.12331,3
 99.95900,   26.73000,    -0.32658, 99.11002,    0.12333,3
100.116,   27.54000,    -0.40695, 99.10904,    0.12341,4
103.114,   28.35000,    -1.22768, 99.08939,    0.12502,4
110.392,   29.16000,    -2.29734, 99.07073,    0.12897,4
120.26,   29.97000,    -3.02955, 99.04813,    0.13440,4
130.944,   30.78000,    -3.38019, 99.02063,    0.14036,4
141.433,   31.59000,    -3.52172, 98.98428,    0.14630,4
151.362,   32.40000,    -3.58966, 98.93320,    0.15198,4
160.71,   33.21000,    -3.67260, 98.89195,    0.15737,4
169.661,   34.02000,    -3.78926, 98.84774,    0.16257,4
178.353,   34.83000,    -3.93822, 98.80550,    0.16765,4
186.899,   35.64000,    -4.08784, 98.77603,    0.17266,4
195.339,   36.45000,    -4.25240, 98.74165,    0.17761,4
203.661,   37.26000,    -4.43048, 98.70530,    0.18250,4
211.909,   38.07000,    -4.61628, 98.68173,    0.18734,4
220.095,   38.88000,    -4.80067, 98.64637,    0.19214,4
228.224,   39.69000,    -4.99244, 98.61690,    0.19688,4
236.343,   40.50000,    -5.18752, 98.58546,    0.20160,4
244.434,   41.31000,    -5.38203, 98.54813,    0.20627,4
252.503,   42.12000,    -5.58908, 98.50786,    0.21089,4
260.571,   42.93000,    -5.80716, 98.47151,    0.21546,4
268.611,   43.74000,    -6.03198, 98.42141,    0.21997,4
276.648,   44.55000,    -6.27511, 98.35363,    0.22442,4
284.667,   45.36000,    -6.52645, 98.27996,    0.22880,4
292.684,   46.17000,    -6.79992, 98.19843,    0.23310,4
300.717,   46.98000,    -7.08569, 98.08251,    0.23734,4
308.754,   47.79000,    -7.39546, 97.96464,    0.24150,4
316.779,   48.60000,    -7.72279, 97.81238,    0.24555,4
324.809,   49.41000,    -8.08991, 97.63163,    0.24951,4
332.85,   50.22000,    -8.47231, 97.41749,    0.25338,4
340.884,   51.03000,    -8.86542, 97.14440,    0.25713,4
348.894,   51.84000,    -9.27246, 96.82122,    0.26076,4
356.926,   52.65000,    -9.66874, 96.46758,    0.26427,4
364.967,   53.46000,   -10.05887, 96.05305,    0.26765,4
372.989,   54.27000,   -10.43930, 95.58939,    0.27090,4
381.024,   55.08000,   -10.79946, 95.10118,    0.27401,4
389.051,   55.89000,   -11.15619, 94.55992,    0.27697,4
397.085,   56.70000,   -11.51454, 93.99411,    0.27978,4
405.135,   57.51000,   -11.88859, 93.37525,    0.28244,4
413.175,   58.32000,   -12.30581, 92.70138,    0.28494,4
421.216,   59.13000,   -12.77820, 91.95580,    0.28727,4
429.277,   59.94000,   -13.30987, 91.11690,    0.28944,4
437.338,   60.75000,   -13.90802, 90.17682,    0.29144,4
445.386,   61.56000,   -14.58356, 89.09430,    0.29325,4
453.455,   62.37000,   -15.33109, 87.86542,    0.29489,4
461.519,   63.18000,   -16.17068, 86.42338,    0.29635,4
469.594,   63.99000,   -17.09965, 84.76817,    0.29762,4
477.659,   64.80000,   -18.11111, 82.85265,    0.29870,4
485.737,   65.61000,   -19.19207, 80.52554,    0.29959,4
493.816,   66.42000,   -20.31719, 77.98232,    0.30029,4
501.89,   67.23000,   -21.44801, 75.08448,    0.30080,4
509.952,   68.04000,   -22.54962, 71.83497,    0.30111,4
518.007,   68.85000,   -23.61481, 68.24558,    0.30123,4
526.057,   69.66000,   -24.56818, 64.32515,    0.30115,4
534.123,   70.47000,   -25.52087, 60.08546,    0.30089,4
542.15,   71.28000,   -26.53859, 55.53733,    0.30043,4
550.204,   72.09000,   -27.58564, 50.64440,    0.29978,4
558.274,   72.90000,   -28.42767, 45.45089,    0.29894,4
566.325,   73.71000,   -28.88174, 40.06582,    0.29791,4
574.372,   74.52000,   -28.93220, 34.64833,    0.29670,4
582.404,   75.33000,   -28.65389, 29.26032,    0.29531,4
590.447,   76.14000,   -28.24347, 24.01277,    0.29374,4
598.474,   76.95000,   -27.64109, 18.92240,    0.29199,4
606.512,   77.76000,   -25.81046, 14.10216,    0.29007,4
614.4,   78.57000,   -12.62723, 11.06288,    0.28802,4
622.08,   79.38000,    -4.60796, 11.00492,    0.28587,4
630.179,   80.19000,    -3.45131, 10.83497,    0.28345,4
638.396,   81.00000,    -3.15561, 10.66994,    0.28082,4
646.6,   81.81000,    -3.02417, 10.58449,    0.27805,4
654.761,   82.62000,    -2.90536, 10.48428,    0.27513,4
662.916,   83.43000,    -2.81389, 10.40276,    0.27208,4
671.061,   84.24000,    -2.72492, 10.36248,    0.26888,4
679.207,   85.05000,    -2.62170, 10.32613,    0.26556,4
687.322,   85.86000,    -2.50062, 10.30354,    0.26212,4
695.447,   86.67000,    -2.38456, 10.30747,    0.25855,4
[...]
727.907,   89.91000,    -2.14097, 10.25836,    0.24323,4
736.01,   90.72000,    -2.12499, 10.25540,    0.23917,4
744.118,   91.53000,    -2.12119, 10.22594,    0.23502,4
752.225,   92.34000,    -2.13389, 10.22692,    0.23080,4
760.331,   93.15000,    -2.16558, 10.22790,    0.22652,4
768.439,   93.96000,    -2.18309, 10.19941,    0.22217,4
776.551,   94.77000,    -2.20243, 10.20334,    0.21777,4
784.666,   95.58000,    -2.21502, 10.18763,    0.21331,4
792.756,   96.39000,    -2.22844, 10.21415,    0.20883,4
800.874,   97.20000,    -2.24600, 10.19843,    0.20430,4
808.987,   98.01000,    -2.26771, 10.19352,    0.19975,4
817.096,   98.82000,    -2.28941, 10.16700,    0.19517,4
825.206,   99.63000,    -2.32969, 10.18959,    0.19059,4
833.332,  100.44,    -2.36898, 10.18566,    0.18597,4
841.441,  101.25,    -2.43112, 10.18762,    0.18137,4
849.548,  102.06,    -2.49437, 10.18959,    0.17677,4
857.646,  102.87,    -2.57148, 10.18075,    0.17219,4
865.749,  103.68,    -2.64604, 10.18468,    0.16762,4
873.863,  104.49,    -2.72834, 10.18861,    0.16305,4
881.975,  105.3,    -2.82576, 10.17682,    0.15852,4
890.084,  106.11,    -2.90441, 10.18271,    0.15402,4
898.181,  106.92,    -3.01325, 10.19254,    0.14955,4
895.339,  107.918,    -0.50135, 10.18174,    0.15111,5
874.749,  108.93,     0.41923, 10.20825,    0.16256,5
852.591,  109.942,     0.40544, 10.25345,    0.17505,5
830.934,  110.955,     0.31527, 10.23773,    0.18734,5
809.515,  111.968,     0.23579, 10.21710,    0.19945,5
788.317,  112.98,     0.14354, 10.24067,    0.21130,5
767.284,  113.993, 7.7159e-002, 10.24853,    0.22279,5
746.41,  115.005, 2.6255e-002, 10.26032,    0.23384,5
725.655,  116.017,-2.3619e-002, 10.26916,    0.24434,5
704.99,  117.03,-5.8928e-002, 10.26523,    0.25422,5
684.435,  118.043,-9.7913e-002, 10.27898,    0.26335,5
663.951,  119.055,    -0.13062, 10.30158,    0.27168,5
643.519,  120.067,    -0.15442, 10.28586,    0.27911,5
623.155,  121.08,    -0.17415, 10.33104,    0.28556,5
602.8,  122.093,    -0.18947, 10.34087,    0.29098,5
582.458,  123.105,    -0.19751, 10.33891,    0.29530,5
562.152,  124.118,    -0.20200, 10.34185,    0.29847,5
541.878,  125.13,    -0.21047, 10.40374,    0.30045,5
521.623,  126.142,    -0.21075, 10.31925,    0.30122,5
501.352,  127.155,    -0.21352, 10.38212,    0.30077,5
481.106,  128.167,    -0.19870, 10.41160,    0.29910,5
460.871,  129.18,    -0.18279, 10.41159,    0.29624,5
440.632,  130.192,    -0.16767, 10.43222,    0.29220,5
420.388,  131.205,    -0.14630, 10.43713,    0.28704,5
400.2,  132.218,    -0.11762, 10.45285,    0.28083,5
380.059,  133.23,-8.0322e-002, 10.46169,    0.27364,5
360.321,  134.242,-4.9446e-002, 10.46857,    0.26571,5
341.342,  135.255,-1.8609e-002, 10.47938,    0.25734,5
323.322,  136.268,-4.4419e-003, 10.49018,    0.24879,5
306.315,  137.28, 2.0444e-002, 10.49411,    0.24025,5
290.261,  138.292, 3.9727e-002, 10.50295,    0.23181,5
275.094,  139.305, 6.9203e-002, 10.51474,    0.22357,5
260.76,  140.317, 9.5694e-002, 10.51375,    0.21557,5
247.206,  141.33,     0.12228, 10.66405,    0.20786,5
234.441,  142.343,     0.15739, 10.40864,    0.20050,5
222.219,  143.355,     0.17779, 10.58546,    0.19338,5
210.715,  144.367,     0.20723, 10.55992,    0.18664,5
199.818,  145.38,     0.22617, 10.56483,    0.18024,5
189.459,  146.393,     0.23901, 10.56680,    0.17416,5
179.65,  147.405,     0.26394, 10.57859,    0.16841,5
170.386,  148.417,     0.28174, 10.57859,    0.16300,5
161.608,  149.43,     0.31185, 10.59038,    0.15789,5
153.287,  150.442,     0.32806, 10.59528,    0.15309,5
152.585,  150.53,     0.33375, 10.59332,    0.15268,5