Folder: Reaction-Rate/cffp (part 2)

File: char_GF_24_06_10.csv
#FILE:                       ,char_GF_24_06_10.dsu            ,,,,
#FORMAT:                     ,NETZSCH5                        ,,,,
#IDENTITY:                   ,char GF                         ,,,,
#DECIMAL:                    ,POINT                           ,,,,
#SEPARATOR:                  ,COMMA                           ,,,,
#MTYPE:                      ,DTA                             ,,,,
#MSUBTYPE:                   ,                                ,,,,
#INSTRUMENT:                 ,NETZSCH STA 449 C               ,,,,
#PROJECT:                    ,Torrefaction                    ,,,,
#DATE/TIME:                  ,24/06/2010 12:29:14             ,,,,
#CORR. FILE:                 ,char_GF_23_06_10.bsu            ,,,,
#LABORATORY:                 ,Sustainable Research Energ      ,,,,
#OPERATOR:                   ,EMF                             ,,,,
#REMARK:                     ,                                ,,,,
#SAMPLE:                     ,nonisoth oxid with init drying  ,,,,
#SAMPLE MASS /mg:            ,10.5,,,,
#MATERIAL:                   ,Alumina                         ,,,,
#REFERENCE:                  ,Alumina                         ,,,,
#REFERENCE MASS /mg:         ,0,,,,
#TYPE OF CRUCIBLE:           ,DTA/TG crucible Al2O3           ,,,,
#SAMPLE CRUCIBLE MASS /mg:   ,0,,,,
#REFERENCE CRUCIBLE MASS /mg:,0,,,,
#CORR. CODE:                 ,20,,,,
#EXO:                        ,-1,,,,
#RANGE:                      ,30.0....900.0/-20.0....10.0K/min,,,,
#SEGMENT:                    ,S1-5/5                          ,,99.0591,,
,,,19.4918,,
##Temp./øC,Time/min,DTA/(mW/mg),Mass/%,Sensit./(æV/mW),Segment
35.748,0.00E+00,4.31E-02,100,9.11E-02,1
35.651,0.6,6.01E-02,99.99238,9.11E-02,1
35.694,1.2,1.31E-03,99.94571,9.11E-02,1
37.523,1.8,-0.19938,99.92667,9.20E-02,1
42.063,2.4,-0.28346,99.93429,9.41E-02,1
48.597,3,-0.39201,99.94952,9.72E-02,1
56.176,3.6,-0.47337,99.9181,0.10085,1
64.15,4.2,-0.55444,99.90571,0.10478,1
72.077,4.8,-0.63264,99.85333,0.10877,1
79.769,5.4,-0.72464,99.76762,0.1127,1
87.191,6,-0.81811,99.68286,0.11656,1
94.415,6.6,-0.90893,99.57524,0.12037,1
101.395,7.2,-0.99673,99.49714,0.1241,2
107.522,7.8,-0.83253,99.39143,0.12741,2
111.836,8.4,-0.6468,99.30095,0.12976,2
114.304,9,-0.52845,99.22381,0.13111,2
115.297,9.6,-0.46115,99.17048,0.13166,2
115.197,10.2,-0.42154,99.12381,0.1316,2
114.308,10.8,-0.38771,99.07333,0.13111,2
112.885,11.4,-0.36262,99.05714,0.13034,2
111.069,12,-0.33779,99.0219,0.12934,2
109.012,12.6,-0.30361,99.0181,0.12822,2
106.788,13.2,-0.28401,99.03238,0.12701,2
104.456,13.8,-0.2613,99.01524,0.12575,2
102.079,14.4,-0.24773,98.99524,0.12446,2
99.66,15,-0.23778,99.00476,0.12316,2
97.408,15.6,-0.24209,98.99238,0.12196,2
95.964,16.2,-0.278,99.00762,0.12119,2
95.572,16.8,-0.2893,99.00381,0.12098,2
95.911,17.4,-0.28985,99,0.12116,2
96.579,18,-0.27921,99,0.12152,2
97.295,18.6,-0.28028,99.00857,0.1219,2
97.916,19.2,-0.27465,99.00571,0.12223,2
98.399,19.8,-0.28379,99.01333,0.12249,2
98.771,20.4,-0.28139,98.99143,0.12269,2
99.046,21,-0.29075,98.99429,0.12284,2
99.264,21.6,-0.29338,98.99905,0.12295,2
99.436,22.2,-0.29509,99.03048,0.12304,3
99.548,22.8,-0.31429,98.99714,0.1231,3
99.645,23.4,-0.35282,99.07429,0.12316,3
99.713,24,-0.36528,99.0781,0.12319,3
99.779,24.6,-0.35165,99.06952,0.12323,3
99.846,25.2,-0.34286,99.07524,0.12326,3
99.904,25.8,-0.33602,99.09714,0.12329,3
99.93,26.4,-0.33597,99.08476,0.12331,3
99.961,27,-0.33303,99.09238,0.12333,3
100.188,27.6,-0.4436,99.08857,0.12345,4
102.259,28.2,-0.84487,99.08667,0.12456,4
106.851,28.8,-1.28377,99.06857,0.12704,4
113.299,29.4,-1.6677,99.05905,0.13056,4
120.807,30,-1.92139,99.02476,0.1347,4
128.717,30.6,-2.08804,98.99333,0.13911,4
136.573,31.2,-2.21275,98.99238,0.14354,4
144.159,31.8,-2.30199,98.92381,0.14785,4
151.429,32.4,-2.40103,98.88286,0.15202,4
158.413,33,-2.50615,98.86952,0.15604,4
165.134,33.6,-2.61481,98.79524,0.15994,4
171.678,34.2,-2.73646,98.7419,0.16375,4
178.096,34.8,-2.86142,98.6981,0.1675,4
184.453,35.4,-2.99248,98.65333,0.17122,4
190.736,36,-3.12475,98.60952,0.17491,4
196.974,36.6,-3.2593,98.61524,0.17857,4
203.135,37.2,-3.39123,98.5819,0.18219,4
209.266,37.8,-3.53119,98.56095,0.18579,4
215.346,38.4,-3.66714,98.54667,0.18936,4
221.397,39,-3.81272,98.53333,0.1929,4
227.426,39.6,-3.96019,98.5181,0.19642,4
233.435,40.2,-4.10951,98.50286,0.19991,4
239.437,40.8,-4.25996,98.50095,0.20339,4
245.431,41.4,-4.42023,98.46571,0.20684,4
251.414,42,-4.58261,98.4581,0.21027,4
257.371,42.6,-4.75736,98.43714,0.21365,4
263.353,43.2,-4.9368,98.40286,0.21703,4
269.316,43.8,-5.12786,98.39333,0.22036,4
275.256,44.4,-5.33291,98.34952,0.22366,4
281.197,45,-5.54491,98.3019,0.22691,4
287.16,45.6,-5.77015,98.24762,0.23015,4
293.096,46.2,-6.02422,98.17048,0.23332,4
299.039,46.8,-6.30421,98.08381,0.23646,4
304.984,47.4,-6.6228,97.97524,0.23956,4
310.937,48,-6.97083,97.8619,0.24261,4
316.904,48.6,-7.35811,97.65905,0.24562,4
322.857,49.2,-7.79622,97.42667,0.24856,4
328.806,49.8,-8.28294,97.16857,0.25145,4
334.764,50.4,-8.81272,96.83714,0.25429,4
340.717,51,-9.37769,96.43238,0.25706,4
346.665,51.6,-9.97669,95.94095,0.25976,4
352.613,52.2,-10.58734,95.41714,0.2624,4
358.57,52.8,-11.2097,94.76286,0.26497,4
364.524,53.4,-11.85891,94.00381,0.26747,4
370.472,54,-12.53182,93.12,0.26989,4
376.428,54.6,-13.21815,92.18191,0.27224,4
382.38,55.2,-13.91974,91.08095,0.27452,4
388.341,55.8,-14.66595,89.87619,0.27671,4
394.304,56.4,-15.46097,88.52286,0.27882,4
400.271,57,-16.31271,86.86762,0.28085,4
406.225,57.6,-17.23024,85.13524,0.28279,4
412.194,58.2,-18.14104,83.21714,0.28464,4
418.168,58.8,-19.09087,81.12,0.28641,4
424.133,59.4,-20.01129,78.74571,0.28808,4
430.095,60,-20.85272,76.20381,0.28965,4
436.063,60.6,-21.61598,73.52952,0.29113,4
442.022,61.2,-22.28344,70.6419,0.29251,4
447.968,61.8,-22.81591,67.62095,0.2938,4
453.924,62.4,-23.31914,64.59524,0.29498,4
459.868,63,-23.70472,61.31143,0.29606,4
465.821,63.6,-24.01901,58.03143,0.29705,4
471.775,64.2,-24.30798,54.64857,0.29793,4
477.723,64.8,-24.57946,51.21048,0.29871,4
483.676,65.4,-24.79126,47.80952,0.29938,4
489.62,66,-25.01482,44.29333,0.29995,4
495.563,66.6,-25.19678,40.83619,0.30042,4
501.511,67.2,-25.30584,37.31524,0.30078,4
507.471,67.8,-25.30208,33.84286,0.30103,4
513.418,68.4,-25.18548,30.42667,0.30118,4
519.373,69,-24.7118,27.17905,0.30123,4
525.314,69.6,-23.57397,24.09619,0.30117,4
531.205,70.2,-19.27462,21.72953,0.30101,4
536.962,70.8,-11.28776,21.01809,0.30075,4
542.75,71.4,-8.5556,20.92571,0.30039,4
548.734,72,-7.8876,20.83905,0.29991,4
554.766,72.6,-7.75426,20.78572,0.29933,4
560.823,73.2,-7.77227,20.79143,0.29863,4
566.874,73.8,-7.83628,20.74381,0.29784,4
572.908,74.4,-7.91895,20.72286,0.29694,4
578.928,75,-8.01013,20.68095,0.29593,4
584.954,75.6,-8.09584,20.66477,0.29483,4
590.957,76.2,-8.19377,20.63048,0.29363,4
596.97,76.8,-8.2807,20.56096,0.29233,4
602.974,77.4,-8.35886,20.45047,0.29094,4
608.973,78,-8.4401,20.35905,0.28945,4
614.968,78.6,-8.52823,20.21238,0.28787,4
620.97,79.2,-8.62848,20.06666,0.28619,4
626.969,79.8,-8.72637,19.98286,0.28443,4
632.971,80.4,-8.80215,19.90667,0.28257,4
638.964,81,-8.86375,19.82286,0.28064,4
644.969,81.6,-8.88631,19.75905,0.27861,4
650.965,82.2,-8.8532,19.64857,0.27651,4
656.953,82.8,-8.73743,19.51238,0.27433,4
662.944,83.4,-8.47266,19.38857,0.27207,4
668.929,84,-7.95277,19.27143,0.26973,4
674.923,84.6,-7.21529,19.14858,0.26732,4
[...]
746.899,91.8,-3.90856,18.64571,0.23358,4
752.904,92.4,-3.8367,18.62381,0.23045,4
758.912,93,-3.78661,18.60572,0.22727,4
764.917,93.6,-3.74304,18.59238,0.22407,4
770.932,94.2,-3.71014,18.57619,0.22082,4
776.928,94.8,-3.69025,18.54,0.21756,4
782.933,95.4,-3.66751,18.52571,0.21427,4
788.943,96,-3.6541,18.52571,0.21095,4
794.938,96.6,-3.64162,18.43524,0.20762,4
800.941,97.2,-3.65012,18.44571,0.20427,4
806.967,97.8,-3.65407,18.43333,0.20088,4
812.954,98.4,-3.66342,18.43143,0.19751,4
818.963,99,-3.68885,18.4381,0.19412,4
824.987,99.6,-3.72299,18.39143,0.19071,4
830.988,100.2,-3.75694,18.36381,0.1873,4
837.002,100.8,-3.77809,18.34952,0.18389,4
842.998,101.4,-3.82494,18.36,0.18049,4
849.004,102,-3.87695,18.32857,0.17708,4
855.018,102.6,-3.93386,18.34666,0.17368,4
861.026,103.2,-3.99974,18.25524,0.17028,4
867.032,103.8,-4.06521,18.26095,0.16689,4
873.036,104.4,-4.144,18.24286,0.16352,4
879.04,105,-4.22131,18.30667,0.16016,4
885.029,105.6,-4.31798,18.36572,0.15682,4
891.051,106.2,-4.41036,18.25047,0.15348,4
897.061,106.8,-4.51401,18.21238,0.15017,4
899.916,107.4975,-2.75907,18.19143,0.1486,5
888.973,108.2475,-0.55432,18.18857,0.15463,5
872.805,108.9975,-0.10039,18.22381,0.16365,5
856.349,109.7475,-5.16E-02,18.42381,0.17292,5
840.217,110.4975,-6.21E-02,18.24095,0.18207,5
824.262,111.2475,-7.85E-02,18.26762,0.19112,5
808.418,111.9975,-7.91E-02,18.14762,0.20007,5
792.702,112.7475,-0.10203,18.27714,0.20887,5
777.084,113.4975,-0.12098,18.22,0.21748,5
761.553,114.2475,-0.16076,18.30381,0.22587,5
746.103,114.9975,-0.17959,18.21429,0.234,5
730.716,115.7475,-0.1979,18.25143,0.24183,5
715.4,116.4975,-0.212,18.22953,0.24932,5
700.123,117.2475,-0.22422,18.29523,0.25645,5
684.901,117.9975,-0.24293,18.30858,0.26316,5
669.71,118.7475,-0.25672,18.26476,0.26942,5
654.575,119.4975,-0.2682,18.20571,0.2752,5
639.455,120.2475,-0.28481,18.22572,0.28047,5
624.36,120.9975,-0.2997,18.25619,0.28521,5
609.287,121.7475,-0.30938,18.23905,0.28937,5
594.234,122.4975,-0.32999,18.27143,0.29294,5
579.172,123.2475,-0.33515,18.26857,0.29589,5
564.132,123.9975,-0.34891,18.27048,0.29821,5
549.088,124.7475,-0.36284,18.27524,0.29988,5
534.073,125.4975,-0.37943,18.28,0.30089,5
519.076,126.2475,-0.39441,18.29142,0.30123,5
504.079,126.9975,-0.40434,18.28381,0.3009,5
489.095,127.7475,-0.4172,18.29429,0.2999,5
474.095,128.4975,-0.4299,18.30667,0.29824,5
459.106,129.2475,-0.44654,18.30857,0.29593,5
444.099,129.9975,-0.46079,18.28476,0.29297,5
429.116,130.7475,-0.47389,18.2819,0.2894,5
414.142,131.4975,-0.48708,18.30762,0.28523,5
399.163,132.2475,-0.50509,18.30572,0.28048,5
384.257,132.9975,-0.52167,18.31619,0.27522,5
369.557,133.7475,-0.53931,18.32572,0.26953,5
355.233,134.4975,-0.54885,18.33334,0.26354,5
341.399,135.2475,-0.55553,18.30286,0.25737,5
328.095,135.9975,-0.57033,18.30095,0.25111,5
315.342,136.7475,-0.57327,18.35143,0.24483,5
303.13,137.4975,-0.57728,18.2981,0.2386,5
291.459,138.2475,-0.57821,18.30667,0.23245,5
280.268,138.9975,-0.57471,18.32762,0.22641,5
269.532,139.7475,-0.57341,18.33143,0.22049,5
259.254,140.4975,-0.56497,18.32857,0.21472,5
249.366,141.2475,-0.5534,18.3581,0.2091,5
239.904,141.9975,-0.5413,18.3019,0.20366,5
230.823,142.7475,-0.52444,18.33904,0.1984,5
222.09,143.4975,-0.5167,18.3,0.19331,5
213.711,144.2475,-0.49919,18.33143,0.1884,5
205.635,144.9975,-0.48744,18.34952,0.18366,5
197.882,145.7475,-0.46793,18.33524,0.17911,5
190.434,146.4975,-0.45512,18.36,0.17473,5
183.268,147.2475,-0.43702,18.35238,0.17053,5
176.392,147.9975,-0.4104,18.35904,0.1665,5
169.81,148.7475,-0.40108,18.38952,0.16266,5
163.496,149.4975,-0.37663,18.36762,0.15899,5
157.407,150.2475,-0.35838,18.40381,0.15546,5
155.343,150.51,-0.35806,18.36667,0.15427,5

File: char_GF_reground_25_10_10.csv
#FILE:                       ,Char_GF_reground_25_10_10.dsu
#FORMAT:                     ,NETZSCH5
#IDENTITY:                   ,Char GF reground_25_10_10
#DECIMAL:                    ,POINT
#SEPARATOR:                  ,COMMA
#MTYPE:                      ,DTA
#MSUBTYPE:                   ,
#INSTRUMENT:                 ,NETZSCH STA 449 C
#PROJECT:                    ,Torrefaction
#DATE/TIME:                  ,25/10/2010 13:55:38
#CORR. FILE:                 ,buoyancy_drying_13_10_10.bsu
#LABORATORY:                 ,Sustainable Research Energ
#OPERATOR:                   ,A Saddawi
#REMARK:                     ,
#SAMPLE:                     ,nonisoth oxid with init drying
#SAMPLE MASS /mg:            ,10.130
#MATERIAL:                   ,char
#REFERENCE:                  ,Alumina
#REFERENCE MASS /mg:         ,0.000
#TYPE OF CRUCIBLE:           ,DTA/TG crucible Al2O3
#SAMPLE CRUCIBLE MASS /mg:   ,0.000
#REFERENCE CRUCIBLE MASS /mg:,0.000
#CORR. CODE:                 ,020
#EXO:                        ,-1
#RANGE:                      ,30.0....900.0/0.0....10.0K/min
#SEGMENT:                    ,S1-4/4

##Temp./øC,Time/min,DTA/(mW/mg),Mass/%,DTG/(%/min),Sensit./(æV/mW),Segment
 33.36000,0.0000e+000, 4.2492e-002,100, 1.0606e-012,9.0024e-002,1
 33.37600,    0.65000, 2.1929e-002, 99.95163,    -0.12526,9.0031e-002,1
 34.20900,    1.30000,    -0.33302, 99.85489,    -0.10056,9.0411e-002,1
 38.09700,    1.95000,    -0.54862, 99.78184,    -0.10786,9.2217e-002,1
 44.58400,    2.60000,    -0.46241, 99.69398,    -0.19325,9.5267e-002,1
 52.48500,    3.25000,    -0.28777, 99.55281,    -0.28150,9.9053e-002,1
 60.94400,    3.90000,    -0.13273, 99.37117,    -0.33277,    0.10319,1
 69.43800,    4.55000,-2.5269e-002, 99.14709,    -0.36021,    0.10743,1
 77.70900,    5.20000, 2.9844e-002, 98.90424,    -0.35962,    0.11164,1
 85.71000,    5.85000,-4.2631e-003, 98.66634,    -0.35349,    0.11578,1
 93.47800,    6.50000,-5.6618e-002, 98.45015,    -0.33717,    0.11987,1
100.933,    7.15000,    -0.11757, 98.26653,    -0.26378,    0.12385,2
107.578,    7.80000,     0.15299, 98.08588,    -0.23654,    0.12744,2
112.084,    8.45000,     0.51013, 97.92004,    -0.23112,    0.12990,2
114.456,    9.10000,     0.72609, 97.77986,    -0.19893,    0.13120,2
115.198,    9.75000,     0.82229, 97.66140,    -0.17220,    0.13161,2
114.766,   10.40000,     0.84351, 97.57552,-7.1244e-002,    0.13137,2
113.529,   11.05000,     0.83467, 97.50247,-3.8255e-002,    0.13069,2
111.759,   11.70000,     0.80191, 97.45508,-4.9787e-002,    0.12972,2
109.621,   12.35000,     0.75640, 97.42349,-3.1604e-002,    0.12855,2
107.264,   13.00000,     0.70488, 97.39487,-1.6522e-002,    0.12727,2
104.764,   13.65000,     0.65660, 97.37907,-2.1777e-002,    0.12591,2
102.202,   14.30000,     0.60841, 97.36624,-2.4279e-002,    0.12453,2
 99.59500,   14.95000,     0.56722, 97.35735,-1.0349e-002,    0.12313,2
 97.23700,   15.60000,     0.41311, 97.35439, 2.7179e-002,    0.12187,2
 96.00600,   16.25000,     0.23517, 97.34946, 3.2007e-002,    0.12121,2
 95.91300,   16.90000,     0.21794, 97.34748, 7.2819e-003,    0.12116,2
 96.44800,   17.55000,     0.28043, 97.34847,-9.3480e-003,    0.12145,2
 97.17100,   18.20000,     0.34639, 97.34748, 2.4321e-002,    0.12183,2
 97.84700,   18.85000,     0.39989, 97.34452, 4.5094e-003,    0.12219,2
 98.36800,   19.50000,     0.42921, 97.34057,-5.6237e-002,    0.12247,2
 98.76200,   20.15000,     0.44255, 97.33465,-9.7513e-003,    0.12268,2
 99.04800,   20.80000,     0.44602, 97.33366,-4.0307e-004,    0.12284,2
 99.27300,   21.45000,     0.45160, 97.32379,-1.3858e-002,    0.12296,2
 99.44800,   22.10000,     0.45126, 97.32083,     0.21802,    0.12305,3
 99.58400,   22.75000,     0.44498, 97.31589,-2.8789e-002,    0.12312,3
 99.68100,   23.40000,     0.44479, 97.32873,-7.0128e-003,    0.12318,3
 99.74200,   24.05000,     0.44768, 97.34650, 1.2596e-003,    0.12321,3
 99.81400,   24.70000,     0.44854, 97.34650,-9.8898e-003,    0.12325,3
 99.86600,   25.35000,     0.45244, 97.34847, 6.5644e-003,    0.12328,3
 99.91400,   26.00000,     0.45935, 97.35143, 9.1780e-003,    0.12330,3
 99.95500,   26.65000,     0.46127, 97.34156, 3.4327e-003,    0.12332,3
 99.98200,   27.30000,     0.44721, 97.33959, 1.9367e-002,    0.12334,4
101.104,   27.95000, 3.0864e-002, 97.33366,-1.7954e-002,    0.12394,4
105.175,   28.60000,    -0.56447, 97.33070, 6.6071e-003,    0.12614,4
111.745,   29.25000,    -1.01600, 97.31984,-2.9537e-002,    0.12971,4
119.686,   29.90000,    -1.25437, 97.29319,-4.3847e-002,    0.13408,4
128.142,   30.55000,    -1.34161, 97.26851,-3.7111e-002,    0.13879,4
136.565,   31.20000,    -1.37034, 97.22705,-6.7858e-002,    0.14354,4
144.712,   31.85000,    -1.38329, 97.16881,-6.2250e-002,    0.14817,4
152.497,   32.50000,    -1.42449, 97.11649,-8.7966e-002,    0.15263,4
159.964,   33.15000,    -1.48837, 97.04936,-8.6651e-002,    0.15694,4
167.191,   33.80000,    -1.58364, 96.99803,-6.0550e-002,    0.16114,4
174.237,   34.45000,    -1.68990, 96.94274,-8.7412e-002,    0.16524,4
181.179,   35.10000,    -1.80534, 96.89240,-7.6891e-002,    0.16930,4
188.034,   35.75000,    -1.94502, 96.85884,-7.0858e-002,    0.17332,4
194.808,   36.40000,    -2.07752, 96.81441,-4.7327e-002,    0.17730,4
201.492,   37.05000,    -2.21357, 96.78381,-4.6718e-002,    0.18123,4
208.13,   37.70000,    -2.35492, 96.74729,-8.0713e-002,    0.18513,4
214.715,   38.35000,    -2.49940, 96.70681,-5.0505e-002,    0.18899,4
221.281,   39.00000,    -2.65947, 96.67621,-6.2811e-002,    0.19283,4
227.798,   39.65000,    -2.82140, 96.63672,-6.4621e-002,    0.19664,4
234.321,   40.30000,    -2.99397, 96.60020,-4.4404e-002,    0.20043,4
240.82,   40.95000,    -3.16607, 96.55775,-9.0501e-002,    0.20419,4
247.306,   41.60000,    -3.34791, 96.51629,-8.3406e-002,    0.20791,4
253.772,   42.25000,    -3.54192, 96.47285,-6.1955e-002,    0.21161,4
260.245,   42.90000,    -3.73892, 96.41560,-8.0988e-002,    0.21528,4
266.709,   43.55000,    -3.94700, 96.35143,    -0.10351,    0.21891,4
273.162,   44.20000,    -4.16940, 96.28628,-9.9589e-002,    0.22250,4
279.607,   44.85000,    -4.41305, 96.20731,    -0.16176,    0.22604,4
286.055,   45.50000,    -4.65684, 96.12241,    -0.10572,    0.22955,4
292.505,   46.15000,    -4.92192, 96.00691,    -0.20765,    0.23301,4
298.943,   46.80000,    -5.20437, 95.87759,    -0.19423,    0.23641,4
305.392,   47.45000,    -5.50412, 95.73741,    -0.23094,    0.23977,4
311.815,   48.10000,    -5.82418, 95.55874,    -0.28346,    0.24306,4
318.259,   48.75000,    -6.17349, 95.35242,    -0.36572,    0.24629,4
324.715,   49.40000,    -6.54987, 95.10267,    -0.41509,    0.24947,4
331.146,   50.05000,    -6.95851, 94.81836,    -0.49358,    0.25257,4
337.593,   50.70000,    -7.39524, 94.46792,    -0.58682,    0.25561,4
344.028,   51.35000,    -7.87231, 94.05331,    -0.68101,    0.25857,4
350.467,   52.00000,    -8.38673, 93.57552,    -0.80828,    0.26145,4
356.912,   52.65000,    -8.92941, 93.03060,    -0.90784,    0.26426,4
363.363,   53.30000,    -9.50605, 92.38105,    -1.08582,    0.26699,4
369.818,   53.95000,   -10.12910, 91.64067,    -1.16949,    0.26963,4
376.264,   54.60000,   -10.80900, 90.77591,    -1.44242,    0.27218,4
382.725,   55.25000,   -11.55714, 89.76407,    -1.65904,    0.27465,4
[...]
415.055,   58.50000,   -16.34067, 81.61402,    -3.48960,    0.28550,4
421.519,   59.15000,   -17.38546, 79.24580,    -3.82072,    0.28736,4
427.989,   59.80000,   -18.36480, 76.63080,    -4.25932,    0.28911,4
434.444,   60.45000,   -19.23646, 73.77789,    -4.51996,    0.29074,4
440.909,   61.10000,   -19.98029, 70.72557,    -4.86310,    0.29226,4
447.365,   61.75000,   -20.59580, 67.51826,    -5.35359,    0.29367,4
453.802,   62.40000,   -21.11173, 64.15400,    -5.23830,    0.29496,4
460.242,   63.05000,   -21.54619, 60.66930,    -5.38109,    0.29613,4
466.697,   63.70000,   -21.92979, 57.06318,    -5.84616,    0.29718,4
473.134,   64.35000,   -22.27308, 53.36229,    -5.72505,    0.29811,4
479.58,   65.00000,   -22.55184, 49.53801,    -6.00642,    0.29893,4
486.036,   65.65000,   -22.75015, 45.63968,    -6.04007,    0.29962,4
492.478,   66.30000,   -22.85835, 41.71965,    -6.11452,    0.30019,4
498.923,   66.95000,   -22.88235, 37.75518,    -5.93110,    0.30063,4
505.364,   67.60000,   -22.80660, 33.81540,    -5.92040,    0.30096,4
511.814,   68.25000,   -22.56659, 29.95459,    -5.86604,    0.30115,4
518.251,   68.90000,   -21.93423, 26.22211,    -5.55026,    0.30123,4
524.667,   69.55000,   -19.48195, 22.99704,    -3.93206,    0.30118,4
530.906,   70.20000,   -10.26504, 21.95262,    -0.27343,    0.30102,4
537.156,   70.85000,    -6.93181, 21.86279,-9.7433e-002,    0.30074,4
543.621,   71.50000,    -6.25884, 21.81737,-2.8258e-002,    0.30033,4
550.175,   72.15000,    -6.16808, 21.77591,-6.1803e-002,    0.29978,4
556.748,   72.80000,    -6.23223, 21.74235,-5.4555e-002,    0.29911,4
563.292,   73.45000,    -6.33604, 21.71767,-5.1061e-002,    0.29832,4
569.817,   74.10000,    -6.45960, 21.68608,-4.6090e-002,    0.29741,4
576.328,   74.75000,    -6.58906, 21.65153,-5.1698e-002,    0.29638,4
582.854,   75.40000,    -6.72721, 21.62093,-6.1995e-002,    0.29523,4
589.366,   76.05000,    -6.86831, 21.57552,    -0.11456,    0.29396,4
595.876,   76.70000,    -6.99568, 21.52912,-9.1547e-002,    0.29258,4
602.392,   77.35000,    -7.13430, 21.45015,    -0.21503,    0.29108,4
608.881,   78.00000,    -7.27189, 21.34650,    -0.14809,    0.28947,4
615.38,   78.65000,    -7.41562, 21.23100,    -0.22535,    0.28776,4
621.876,   79.30000,    -7.57426, 21.11352,    -0.17632,    0.28593,4
628.386,   79.95000,    -7.73488, 21.03159,    -0.15779,    0.28400,4
634.875,   80.60000,    -7.87678, 20.96150,-7.5441e-002,    0.28197,4
641.377,   81.25000,    -7.99816, 20.87266,-7.6605e-002,    0.27983,4
647.87,   81.90000,    -8.08463, 20.78776,-7.1374e-002,    0.27760,4
654.374,   82.55000,    -8.11402, 20.69200,    -0.19698,    0.27528,4
660.852,   83.20000,    -8.02429, 20.57157,    -0.19449,    0.27286,4
667.358,   83.85000,    -7.71680, 20.43929,    -0.24306,    0.27035,4
673.835,   84.50000,    -7.11531, 20.28924,    -0.25102,    0.26777,4
680.318,   85.15000,    -6.44552, 20.14413,    -0.26659,    0.26509,4
686.804,   85.80000,    -5.97975, 20.03060,    -0.12666,    0.26234,4
693.284,   86.45000,    -5.61321, 19.96644,-7.7343e-002,    0.25951,4
699.787,   87.10000,    -5.34463, 19.91708,-5.0969e-002,    0.25660,4
706.3,   87.75000,    -5.20714, 19.87069,-3.1984e-002,    0.25361,4
712.803,   88.40000,    -5.14150, 19.84205,-6.2480e-002,    0.25056,4
719.297,   89.05000,    -5.11842, 19.81638,-1.8218e-002,    0.24745,4
725.794,   89.70000,    -5.08995, 19.79269,-4.9422e-002,    0.24427,4
732.313,   90.35000,    -5.03197, 19.78283,-1.0328e-002,    0.24103,4
738.816,   91.00000,    -4.97753, 19.76802,-2.9152e-002,    0.23774,4
738.91,   91.01000,    -4.97428, 19.76802,-3.2954e-002,    0.23770,4