Folder: Reaction-Rate/cffp2 (part 2)

File: char_LF_24_06_10again.csv
#FILE:                       ,char_LF_24_06_10again.dsu     ,,,,
#FORMAT:                     ,NETZSCH5                      ,,,,
#IDENTITY:                   ,char LF                       ,,,,
#DECIMAL:                    ,POINT                         ,,,,
#SEPARATOR:                  ,COMMA                         ,,,,
#MTYPE:                      ,DTA                           ,,,,
#MSUBTYPE:                   ,                              ,,,,
#INSTRUMENT:                 ,NETZSCH STA 449 C             ,,,,
#PROJECT:                    ,Torrefaction                  ,,,,
#DATE/TIME:                  ,24/06/2010 16:20:36           ,,,,
#CORR. FILE:                 ,char_GF_23_06_10.bsu          ,,,,
#LABORATORY:                 ,Sustainable Research Energ    ,,,,
#OPERATOR:                   ,EMF                           ,,,,
#REMARK:                     ,                              ,,,,
#SAMPLE:                     ,nonisoth oxid with init drying,,,,
#SAMPLE MASS /mg:            ,9.95,,,,
#MATERIAL:                   ,Alumina                       ,,,,
#REFERENCE:                  ,Alumina                       ,,,,
#REFERENCE MASS /mg:         ,0,,,,
#TYPE OF CRUCIBLE:           ,DTA/TG crucible Al2O3         ,,,,
#SAMPLE CRUCIBLE MASS /mg:   ,0,,,,
#REFERENCE CRUCIBLE MASS /mg:,0,,,,
#CORR. CODE:                 ,20,,,,
#EXO:                        ,-1,,,,
#RANGE:                      ,30.0....900.0/0.0....10.0K/min,,,,
#SEGMENT:                    ,S1-4/4                        ,,,,
,,,,,
##Temp./øC,Time/min,DTA/(mW/mg),Mass/%,Sensit./(æV/mW),Segment
34.571,0.00E+00,-1.11E-02,100,9.06E-02,1
34.556,0.41,-4.16E-03,100.009,9.06E-02,1
34.547,0.82,1.11E-02,100.009,9.06E-02,1
34.839,1.23,-0.20083,99.97588,9.07E-02,1
36.19,1.64,-0.74141,99.94573,9.13E-02,1
38.868,2.05,-1.40859,99.97889,9.26E-02,1
42.632,2.46,-2.05467,99.96181,9.43E-02,1
47.188,2.87,-2.58401,99.97186,9.65E-02,1
52.27,3.28,-2.95189,99.97186,9.89E-02,1
57.633,3.69,-3.17284,99.96583,0.10156,1
63.097,4.1,-3.27272,99.97487,0.10426,1
68.559,4.51,-3.29721,99.95276,0.10699,1
73.913,4.92,-3.27186,99.90251,0.1097,1
79.135,5.33,-3.22753,99.88141,0.11237,1
84.246,5.74,-3.15764,99.83819,0.11502,1
89.236,6.15,-3.0929,99.79497,0.11763,1
94.129,6.56,-3.04,99.74573,0.12021,1
98.903,6.97,-2.98316,99.71156,0.12276,1
103.458,7.38,-2.86057,99.66935,0.12521,2
107.515,7.79,-2.5529,99.60201,0.1274,2
110.708,8.2,-2.1285,99.5608,0.12914,2
113.019,8.61,-1.67622,99.52362,0.13041,2
114.528,9.02,-1.24923,99.46834,0.13124,2
115.353,9.43,-0.8891,99.45628,0.13169,2
115.616,9.84,-0.58223,99.43618,0.13184,2
115.434,10.25,-0.31184,99.42412,0.13173,2
114.88,10.66,-0.1147,99.41709,0.13143,2
114.059,11.07,5.47E-02,99.38593,0.13098,2
113.014,11.48,0.19075,99.36784,0.13041,2
111.799,11.89,0.29824,99.36382,0.12974,2
110.456,12.3,0.38758,99.35879,0.12901,2
109.018,12.71,0.45559,99.3799,0.12822,2
107.508,13.12,0.51377,99.3598,0.1274,2
105.938,13.53,0.56089,99.36482,0.12655,2
104.341,13.94,0.58874,99.35176,0.12568,2
102.716,14.35,0.60294,99.35377,0.12481,2
101.094,14.76,0.61935,99.35176,0.12393,2
99.443,15.17,0.64729,99.3407,0.12305,2
97.853,15.58,0.63638,99.34673,0.1222,2
96.509,15.99,0.51192,99.33869,0.12148,2
95.633,16.4,0.32597,99.33065,0.12101,2
95.269,16.81,9.67E-02,99.35075,0.12082,2
95.319,17.22,-0.12267,99.36683,0.12085,2
95.648,17.63,-0.2782,99.32362,0.12102,2
96.115,18.04,-0.38226,99.32362,0.12127,2
96.647,18.45,-0.43511,99.35477,0.12155,2
97.173,18.86,-0.45061,99.36281,0.12183,2
97.629,19.27,-0.43942,99.37889,0.12208,2
98.026,19.68,-0.41605,99.35678,0.12229,2
98.366,20.09,-0.38774,99.34874,0.12247,2
98.62,20.5,-0.35145,99.34774,0.12261,2
98.843,20.91,-0.33063,99.3608,0.12273,2
99.029,21.32,-0.30991,99.3598,0.12283,2
99.18,21.73,-0.29642,99.33065,0.12291,2
99.308,22.14,-0.28605,99.2804,0.12297,3
99.419,22.55,-0.27467,99.3598,0.12304,3
99.502,22.96,-0.29601,99.35879,0.12308,3
99.571,23.37,-0.3153,99.37688,0.12312,3
99.627,23.78,-0.31216,99.39397,0.12315,3
99.678,24.19,-0.30598,99.41709,0.12317,3
99.728,24.6,-0.29367,99.41508,0.1232,3
99.77,25.01,-0.28342,99.4201,0.12322,3
99.823,25.42,-0.27622,99.41709,0.12325,3
99.856,25.83,-0.27313,99.4,0.12327,3
99.888,26.24,-0.26698,99.41809,0.12329,3
99.919,26.65,-0.26694,99.42412,0.1233,3
99.941,27.06,-0.25774,99.41709,0.12332,4
100.032,27.47,-0.31467,99.41608,0.12336,4
100.766,27.88,-0.68418,99.4,0.12376,4
102.67,28.29,-1.33196,99.40503,0.12478,4
105.73,28.7,-2.09354,99.43116,0.12644,4
109.77,29.11,-2.80298,99.3608,0.12863,4
114.488,29.52,-3.37779,99.38392,0.13121,4
119.654,29.93,-3.77641,99.38392,0.13406,4
125.027,30.34,-4.03053,99.38191,0.13705,4
130.464,30.75,-4.15188,99.36382,0.1401,4
135.858,31.16,-4.18128,99.35176,0.14314,4
141.11,31.57,-4.15878,99.33166,0.14612,4
146.231,31.98,-4.10592,99.30553,0.14904,4
151.186,32.39,-4.05062,99.3005,0.15188,4
155.997,32.8,-3.99104,99.28241,0.15465,4
160.67,33.21,-3.95046,99.26131,0.15735,4
165.234,33.62,-3.92356,99.25126,0.16,4
169.725,34.03,-3.90995,99.19899,0.16261,4
174.131,34.44,-3.91681,99.18593,0.16518,4
178.504,34.85,-3.93581,99.18593,0.16774,4
182.851,35.26,-3.95217,99.1397,0.17028,4
187.166,35.67,-3.98081,99.13367,0.17281,4
191.442,36.08,-4.01698,99.10955,0.17532,4
195.704,36.49,-4.05585,99.10955,0.17782,4
199.927,36.9,-4.09126,99.09045,0.18031,4
204.133,37.31,-4.13424,99.08945,0.18278,4
208.312,37.72,-4.18731,99.09146,0.18523,4
212.498,38.13,-4.23693,99.1005,0.18769,4
216.637,38.54,-4.29917,99.06131,0.19012,4
220.792,38.95,-4.35122,99.07337,0.19255,4
224.912,39.36,-4.4077,99.08643,0.19495,4
229.035,39.77,-4.46735,99.05729,0.19736,4
233.152,40.18,-4.53458,99.05528,0.19975,4
237.26,40.59,-4.59863,99.0794,0.20213,4
241.338,41,-4.66607,99.05528,0.20449,4
245.428,41.41,-4.74538,99.04221,0.20684,4
249.523,41.82,-4.82186,99.04422,0.20919,4
253.595,42.23,-4.9061,99.02714,0.21151,4
257.69,42.64,-4.98201,99.02513,0.21383,4
261.768,43.05,-5.06261,99.01608,0.21614,4
265.844,43.46,-5.15278,99.0191,0.21843,4
269.907,43.87,-5.23769,99.00905,0.22069,4
273.976,44.28,-5.33336,99.02714,0.22295,4
278.042,44.69,-5.43042,98.96181,0.22519,4
282.092,45.1,-5.53778,98.95779,0.2274,4
286.148,45.51,-5.64724,98.96985,0.2296,4
290.197,45.92,-5.75735,98.93266,0.23178,4
294.261,46.33,-5.88019,98.93769,0.23394,4
298.331,46.74,-6.00333,98.89849,0.23609,4
302.399,47.15,-6.1417,98.89045,0.23822,4
306.452,47.56,-6.28153,98.81709,0.24032,4
310.51,47.97,-6.43812,98.78392,0.24239,4
314.583,48.38,-6.60072,98.73467,0.24445,4
318.649,48.79,-6.76544,98.70251,0.24649,4
322.719,49.2,-6.94783,98.6,0.2485,4
326.773,49.61,-7.15535,98.51859,0.25047,4
330.852,50.02,-7.37648,98.42312,0.25243,4
334.922,50.43,-7.6164,98.29548,0.25436,4
338.981,50.84,-7.88219,98.19296,0.25626,4
343.052,51.25,-8.16819,97.97387,0.25813,4
347.111,51.66,-8.47298,97.79095,0.25996,4
351.186,52.07,-8.78294,97.60905,0.26177,4
355.258,52.48,-9.07931,97.4191,0.26355,4
359.323,52.89,-9.35923,97.14472,0.26529,4
363.385,53.3,-9.62876,96.91759,0.267,4
367.441,53.71,-9.87469,96.63518,0.26867,4
371.516,54.12,-10.11164,96.29146,0.27031,4
375.578,54.53,-10.35004,95.97286,0.27191,4
379.637,54.94,-10.59262,95.63819,0.27348,4
383.694,55.35,-10.84351,95.25126,0.27501,4
387.771,55.76,-11.09966,94.89146,0.2765,4
391.839,56.17,-11.38459,94.44422,0.27796,4
395.916,56.58,-11.69053,94.01407,0.27938,4
399.976,56.99,-12.00831,93.48342,0.28075,4
[...]
453.002,62.32,-18.46049,81.82915,0.2948,4
457.075,62.73,-18.94069,80.40804,0.29557,4
461.146,63.14,-19.38678,78.98794,0.29628,4
465.214,63.55,-19.7658,77.41106,0.29695,4
469.3,63.96,-20.11789,75.88744,0.29757,4
473.37,64.37,-20.43698,74.27538,0.29815,4
477.432,64.78,-20.71831,72.67638,0.29867,4
481.508,65.19,-20.95706,70.99799,0.29915,4
485.568,65.6,-21.25845,69.15879,0.29957,4
489.637,66.01,-21.60855,67.4804,0.29995,4
493.716,66.42,-21.86674,65.65326,0.30028,4
497.804,66.83,-22.16516,63.77387,0.30056,4
501.875,67.24,-22.49933,61.82412,0.3008,4
505.946,67.65,-22.89726,59.83317,0.30098,4
510.043,68.06,-23.29764,57.75779,0.30111,4
514.112,68.47,-23.70706,55.65025,0.3012,4
518.203,68.88,-24.10392,53.41507,0.30123,4
522.292,69.29,-24.49391,51.13467,0.30121,4
526.377,69.7,-24.84841,48.77889,0.30115,4
530.456,70.11,-25.1592,46.39397,0.30103,4
534.533,70.52,-25.48986,43.88643,0.30087,4
538.617,70.93,-25.78544,41.35276,0.30065,4
542.691,71.34,-25.93133,38.81005,0.30039,4
546.773,71.75,-26.10941,36.27538,0.30008,4
550.849,72.16,-26.31306,33.65628,0.29972,4
554.922,72.57,-26.44172,31.00904,0.29931,4
559,72.98,-26.53051,28.43317,0.29885,4
563.074,73.39,-26.48191,25.77889,0.29835,4
567.146,73.8,-26.36437,23.21507,0.2978,4
571.223,74.21,-26.14625,20.67135,0.2972,4
575.302,74.62,-25.63736,18.2,0.29655,4
579.358,75.03,-24.58854,15.83517,0.29586,4
583.398,75.44,-22.07432,13.78191,0.29513,4
587.37,75.85,-15.20246,12.63417,0.29436,4
591.247,76.26,-8.92791,12.55678,0.29357,4
595.184,76.67,-6.9872,12.51758,0.29273,4
599.219,77.08,-6.29086,12.51356,0.29182,4
603.344,77.49,-6.00997,12.47236,0.29085,4
607.472,77.9,-5.89325,12.42713,0.28983,4
611.625,78.31,-5.86156,12.38191,0.28876,4
615.771,78.72,-5.86239,12.31859,0.28765,4
619.909,79.13,-5.88638,12.30854,0.2865,4
624.033,79.54,-5.90134,12.28743,0.2853,4
628.153,79.95,-5.90928,12.21709,0.28407,4
632.288,80.36,-5.9027,12.20804,0.28279,4
636.39,80.77,-5.88509,12.08543,0.28148,4
640.511,81.18,-5.83779,12.14171,0.28012,4
644.627,81.59,-5.7498,12.14171,0.27873,4
648.745,82,-5.60963,12.02814,0.2773,4
652.837,82.41,-5.41027,11.97587,0.27583,4
656.953,82.82,-5.13822,11.94874,0.27433,4
661.049,83.23,-4.79967,11.83819,0.27279,4
665.147,83.64,-4.43842,11.83115,0.27122,4
669.244,84.05,-4.12008,11.82714,0.26961,4
673.344,84.46,-3.88468,11.71558,0.26796,4
677.448,84.87,-3.73083,11.73467,0.26629,4
681.553,85.28,-3.6315,11.76482,0.26457,4
685.671,85.69,-3.55864,11.62813,0.26283,4
689.776,86.1,-3.5169,11.70955,0.26105,4
693.884,86.51,-3.48567,11.6593,0.25925,4
697.98,86.92,-3.47141,11.65628,0.25741,4
702.09,87.33,-3.45792,11.66834,0.25555,4
706.199,87.74,-3.44608,11.65226,0.25366,4
710.306,88.15,-3.4264,11.63216,0.25174,4
714.412,88.56,-3.41036,11.59698,0.24979,4
718.513,88.97,-3.3979,11.6,0.24783,4
722.612,89.38,-3.38198,11.60502,0.24583,4
726.711,89.79,-3.36355,11.62613,0.24382,4
730.818,90.2,-3.33011,11.55779,0.24178,4
734.913,90.61,-3.29004,11.59297,0.23972,4
739.005,91.02,-3.2384,11.5608,0.23765,4
743.111,91.43,-3.17935,11.56784,0.23554,4
747.213,91.84,-3.11298,11.53468,0.23342,4
751.32,92.25,-3.04186,11.55678,0.23128,4
755.423,92.66,-2.96797,11.52361,0.22912,4
759.521,93.07,-2.90448,11.54572,0.22695,4
763.618,93.48,-2.83213,11.49949,0.22476,4
767.734,93.89,-2.77221,11.51557,0.22255,4
771.825,94.3,-2.71224,11.48342,0.22034,4
775.926,94.71,-2.65531,11.53668,0.21811,4
780.025,95.12,-2.61131,11.84824,0.21587,4
784.153,95.53,-2.51672,11.15578,0.2136,4
788.251,95.94,-2.5086,11.47035,0.21133,4
792.346,96.35,-2.47697,11.54271,0.20906,4
796.454,96.76,-2.43511,11.46131,0.20677,4
800.54,97.17,-2.41192,11.60602,0.20449,4
801.941,97.31,-2.3984,11.44422,0.20371,4

File: char_N_18_10_10.csv
#FILE:                       ,CharN_18_10_10.dsu            ,,,,,,,,,,,,,,,,,,,,,,,,,,
#FORMAT:                     ,NETZSCH5                      ,,,,,,,,,,,,,,,,,,,,,,,,,,
#IDENTITY:                   ,CharN_18_10_10                ,,,,,,,,,,,,,,,,,,,,,,,,,,
#DECIMAL:                    ,POINT                         ,,,,,,,,,,,,,,,,,,,,,,,,,,
#SEPARATOR:                  ,COMMA                         ,,,,,,,,,,,,,,,,,,,,,,,,,,
#MTYPE:                      ,DTA                           ,,,,,,,,,,,,,,,,,,,,,,,,,,
#MSUBTYPE:                   ,                              ,,,,,,,,,,,,,,,,,,,,,,,,,,
#INSTRUMENT:                 ,NETZSCH STA 449 C             ,,,,,,,,,,,,,,,,,,,,,,,,,,
#PROJECT:                    ,Torrefaction                  ,,,,,,,,,,,,,,,,,,,,,,,,,,
#DATE/TIME:                  ,18/10/2010 10:44:37           ,,,,,,,,,,,,,,,,,,,,,,,,,,
#CORR. FILE:                 ,buoyancy_drying_13_10_10.bsu  ,,,,,,,,,,,,,,,,,,,,,,,,,,
#LABORATORY:                 ,Sustainable Research Energ    ,,,,,,,,,,,,,,,,,,,,,,,,,,
#OPERATOR:                   ,A Saddawi                     ,,,,,,,,,,,,,,,,,,,,,,,,,,
#REMARK:                     ,                              ,,,,,,,,,,,,,,,,,,,,,,,,,,
#SAMPLE:                     ,nonisoth oxid with init drying,,,,,,,,,,,,,,,,,,,,,,,,,,
#SAMPLE MASS /mg:            ,10.42,,,,,,,,,,,,,,,,,,,,,,,,,,
#MATERIAL:                   ,char                          ,,,,,,,,,,,,,,,,,,,,,,,,,,
#REFERENCE:                  ,Alumina                       ,,,,,,,,,,,,,,,,,,,,,,,,,,
#REFERENCE MASS /mg:         ,0,,,,,,,,,,,,,,,,,,,,,,,,,,
#TYPE OF CRUCIBLE:           ,DTA/TG crucible Al2O3         ,,,,,,,,,,,,,,,,,,,,,,,,,,
#SAMPLE CRUCIBLE MASS /mg:   ,0,,,,#SEGMENT:                    ,S1-5/5                          ,,,,,,,,,,,,,,,,,,,,,
#REFERENCE CRUCIBLE MASS /mg:,0,,,,,,,,,,,,,,,,,,,,,,,,,,
#CORR. CODE:                 ,20,,,,,,,,,,,,,,,,,,,,,,,,,,
#EXO:                        ,-1,,,,,,,,,,,,,,,,,,,,,,,,,,
#RANGE:                      ,100.0/10.0(K/min)/900.0       ,,,,,,,,,,,,,,,,,,,,,,,,,,
#SEGMENT:                    ,S1-5/5                          ,,,,,,,,,,,,,,,,,,,,,,,,,,
,,,,,,,,,,,,,,,,,,,,,,,,,,,
,,,,,,,,,,,,,0.954504,0.938633,0.9171,0.886441,0.841545,0.771246,0.665178,0.509361,0.992764,0.987249,0.978641,0.967551,0.309448,0.14116,0.0944834
##Temp./øC,Time/min,DTA/(mW/mg),Mass/%,Sensit./(æV/mW),,"mass, g","m-minf-mh2o, g",(m-minf-mash)/(mo-minf-mash),dm/dt,1/T(k),"k, s-1",,9.68919,,,,,,6.56761,,2.90427,,,,,,
99.936,27.03,-6.42E-02,97.71401,0.12331,,10.1818,10.1818,1,-0.000642845,0.002680347,6.31366E-05,,0.951619,,,,,,0.645034,,0.285241,,,,,,
504.74,67.53,-18.72597,80.3887,0.30093,,8.3765,8.3765,0.822694,-0.273763,0.001285529,0.0326822,,,,,,,,,,,,,,,,
435.074,40.5,-12.29138,90.60479,,,9.44102,9.44102,0.927245,-0.130178,0.001411983,0.0137885,,,,,,,,,,,,,,,,
636.265,60.75,-8.77401,8.66068,,,0.902443,0.902443,0.08863294,-0.204928,0.001099608,0.227081,,,,,,,,,,,,,,,,
839.146,81,-2.17234,7.96607,,,0.830064,0.830064,0.0815243,-0.000385244,0.000899041,0.000464113,,,,,,,,,,,,,,,,
,,,,,,0,0,0,#DIV/0!,0.003660992,#DIV/0!,,,,,,,,,,,,,,,,
,,,,,,0,0,0,#DIV/0!,0.003660992,#DIV/0!,,,,,,,,,,,,,,,,
,,,,,,0,0,0,#DIV/0!,0.003660992,#DIV/0!,,,,,,,,,,,,,,,,
,,,,,,0,0,0,#DIV/0!,0.003660992,#DIV/0!,,,,,,,,,,,,,,,,
,,,,,,0,0,0,#DIV/0!,0.003660992,#DIV/0!,,,,,,,,,,,,,,,,
,,,,,,0,0,0,#DIV/0!,0.003660992,#DIV/0!,,,,,,,,,,,,,,,,
,,,,,,0,0,0,#DIV/0!,0.003660992,#DIV/0!,,,,,,,,,,,,,,,,
,,,,,,0,0,0,#DIV/0!,0.003660992,#DIV/0!,,,,,,,,,,,,,,,,
,,,,,,0,0,0,#DIV/0!,0.003660992,#DIV/0!,,,,,,,,,,,,,,,,
,,,,,,0,0,0,#DIV/0!,0.003660992,#DIV/0!,,,,,,,,,,,,,,,,
,,,,,,0,0,0,#DIV/0!,0.003660992,#DIV/0!,,,,,,,,,,,,,,,,
,,,,,,0,0,0,#DIV/0!,0.003660992,#DIV/0!,,,,,,,,,,,,,,,,
,,,,,,0,0,0,#DIV/0!,0.003660992,#DIV/0!,,,,,,,,,,,,,,,,
,,,,,,0,0,0,#DIV/0!,0.003660992,#DIV/0!,,,,,,,,,,,,,,,,
,,,,,,0,0,0,#DIV/0!,0.003660992,#DIV/0!,,,,,,,,,,,,,,,,
,,,,,,0,0,0,#DIV/0!,0.003660992,#DIV/0!,,,,,,,,,,,,,,,,
,,,,,,0,0,0,#DIV/0!,0.003660992,#DIV/0!,,,,,,,,,,,,,,,,
,,,,,,0,0,0,#DIV/0!,0.003660992,#DIV/0!,,,,,,,,,,,,,,,,
,,,,,,0,0,0,#DIV/0!,0.003660992,#DIV/0!,,,,,,,,,,,,,,,,
,,,,,,0,0,0,#DIV/0!,0.003660992,#DIV/0!,,,,,,,,,,,,,,,,
,,,,,,0,0,0,#DIV/0!,0.003660992,#DIV/0!,,,,,,,,,,,,,,,,
,,,,,,0,0,0,#DIV/0!,0.003660992,#DIV/0!,,,,,,,,,,,,,,,,
,,,,,,0,0,0,#DIV/0!,0.003660992,#DIV/0!,,,,,,,,,,,,,,,,
,,,,,,0,0,0,#DIV/0!,0.003660992,#DIV/0!,,,,,,,,,,,,,,,,
,,,,,,0,0,0,#DIV/0!,0.003660992,#DIV/0!,,,,,,,,,,,,,,,,
,,,,,,0,0,0,#DIV/0!,0.003660992,#DIV/0!,,,,,,,,,,,,,,,,
,,,,,,0,0,0,#DIV/0!,0.003660992,#DIV/0!,,,,,,,,,,,,,,,,
,,,,,,0,0,0,#DIV/0!,0.003660992,#DIV/0!,,,,,,,,,,,,,,,,
,,,,,,0,0,0,#DIV/0!,0.003660992,#DIV/0!,,,,,,,,,,,,,,,,
,,,,,,0,0,0,#DIV/0!,0.003660992,#DIV/0!,,,,,,,,,,,,,,,,
,,,,,,0,0,0,#DIV/0!,0.003660992,#DIV/0!,,,,,,,,,,,,,,,,
,,,,,,0,0,0,#DIV/0!,0.003660992,#DIV/0!,,,,,,,,,,,,,,,,
,,,,,,0,0,0,#DIV/0!,0.003660992,#DIV/0!,,,,,,,,,,,,,,,,
,,,,,,0,0,0,#DIV/0!,0.003660992,#DIV/0!,,,,,,,,,,,,,,,,
,,,,,,0,0,0,#DIV/0!,0.003660992,#DIV/0!,,,,,,,,,,,,,,,,
,,,,,,0,0,0,#DIV/0!,0.003660992,#DIV/0!,,,,,,,,,,,,,,,,
,,,,,,0,0,0,#DIV/0!,0.003660992,#DIV/0!,,,,,,,,,,,,,,,,
,,,,,,0,0,0,#DIV/0!,0.003660992,#DIV/0!,,,,,,,,,,,,,,,,
,,,,,,0,0,0,#DIV/0!,0.003660992,#DIV/0!,,,,,,,,,,,,,,,,
,,,,,,0,0,0,#DIV/0!,0.003660992,#DIV/0!,,,,,,,,,,,,,,,,
,,,,,,0,0,0,#DIV/0!,0.003660992,#DIV/0!,,,,,,,,,,,,,,,,
,,,,,,0,0,0,#DIV/0!,0.003660992,#DIV/0!,,,,,,,,,,,,,,,,
,,,,,,0,0,0,#DIV/0!,0.003660992,#DIV/0!,,,,,,,,,,,,,,,,
,,,,,,0,0,0,#DIV/0!,0.003660992,#DIV/0!,,,,,,,,,,,,,,,,
,,,,,,0,0,0,#DIV/0!,0.003660992,#DIV/0!,,,,,,,,,,,,,,,,
,,,,,,0,0,0,#DIV/0!,0.003660992,#DIV/0!,,,,,,,,,,,,,,,,
,,,,,,0,0,0,#DIV/0!,0.003660992,#DIV/0!,,,,,,,,,,,,,,,,
,,,,,,0,0,0,#DIV/0!,0.003660992,#DIV/0!,,,,,,,,,,,,,,,,
,,,,,,0,0,0,#DIV/0!,0.003660992,#DIV/0!,,,,,,,,,,,,,,,,
,,,,,,0,0,0,#DIV/0!,0.003660992,#DIV/0!,,,,,,,,,,,,,,,,
,,,,,,0,0,0,#DIV/0!,0.003660992,#DIV/0!,,,,,,,,,,,,,,,,
,,,,,,0,0,0,#DIV/0!,0.003660992,#DIV/0!,,,,,,,,,,,,,,,,
,,,,,,0,0,0,#DIV/0!,0.003660992,#DIV/0!,,,,,,,,,,,,,,,,
,,,,,,0,0,0,#DIV/0!,0.003660992,#DIV/0!,,,,,,,,,,,,,,,,
,,,,,,0,0,0,#DIV/0!,0.003660992,#DIV/0!,,,,,,,,,,,,,,,,
,,,,,,0,0,0,#DIV/0!,0.003660992,#DIV/0!,,,,,,,,,,,,,,,,
,,,,,,0,0,0,#DIV/0!,0.003660992,#DIV/0!,,,,,,,,,,,,,,,,
,,,,,,0,0,0,#DIV/0!,0.003660992,#DIV/0!,,,,,,,,,,,,,,,,
,,,,,,0,0,0,#DIV/0!,0.003660992,#DIV/0!,,,,,,,,,,,,,,,,
,,,,,,0,0,0,#DIV/0!,0.003660992,#DIV/0!,,,,,,,,,,,,,,,,
,,,,,,0,0,0,#DIV/0!,0.003660992,#DIV/0!,,,,,,,,,,,,,,,,
,,,,,,0,0,0,#DIV/0!,0.003660992,#DIV/0!,,,,,,,,,,,,,,,,
,,,,,,0,0,0,#DIV/0!,0.003660992,#DIV/0!,,,,,,,,,,,,,,,,
,,,,,,0,0,0,#DIV/0!,0.003660992,#DIV/0!,,,,,,,,,,,,,,,,
,,,,,,0,0,0,#DIV/0!,0.003660992,#DIV/0!,,,,,,,,,,,,,,,,
,,,,,,0,0,0,#DIV/0!,0.003660992,#DIV/0!,,,,,,,,,,,,,,,,
,,,,,,0,0,0,#DIV/0!,0.003660992,#DIV/0!,,,,,,,,,,,,,,,,
,,,,,,0,0,0,#DIV/0!,0.003660992,#DIV/0!,,,,,,,,,,,,,,,,
,,,,,,0,0,0,#DIV/0!,0.003660992,#DIV/0!,,,,,,,,,,,,,,,,
,,,,,,0,0,0,#DIV/0!,0.003660992,#DIV/0!,,,,,,,,,,,,,,,,
,,,,,,0,0,0,#DIV/0!,0.003660992,#DIV/0!,,,,,,,,,,,,,,,,
,,,,,,0,0,0,#DIV/0!,0.003660992,#DIV/0!,,,,,,,,,,,,,,,,
,,,,,,0,0,0,#DIV/0!,0.003660992,#DIV/0!,,,,,,,,,,,,,,,,
,,,,,,0,0,0,#DIV/0!,0.003660992,#DIV/0!,,,,,,,,,,,,,,,,
,,,,,,0,0,0,#DIV/0!,0.003660992,#DIV/0!,,,,,,,,,,,,,,,,
,,,,,,0,0,0,#DIV/0!,0.003660992,#DIV/0!,,,,,,,,,,,,,,,,
[...]
,,,,,,0,0,0,#DIV/0!,0.003660992,#DIV/0!,,,,,,,,,,,,,,,,
,,,,,,0,0,0,#DIV/0!,0.003660992,#DIV/0!,,,,,,,,,,,,,,,,
,,,,,,0,0,0,#DIV/0!,0.003660992,#DIV/0!,,,,,,,,,,,,,,,,
,,,,,,0,0,0,#DIV/0!,0.003660992,#DIV/0!,,,,,,,,,,,,,,,,
,,,,,,0,0,0,#DIV/0!,0.003660992,#DIV/0!,,,,,,,,,,,,,,,,
,,,,,,0,0,0,#DIV/0!,0.003660992,#DIV/0!,,,,,,,,,,,,,,,,
,,,,,,0,0,0,#DIV/0!,0.003660992,#DIV/0!,,,,,,,,,,,,,,,,
,,,,,,0,0,0,#DIV/0!,0.003660992,#DIV/0!,,,,,,,,,,,,,,,,
,,,,,,0,0,0,#DIV/0!,0.003660992,#DIV/0!,,,,,,,,,,,,,,,,
,,,,,,0,0,0,#DIV/0!,0.003660992,#DIV/0!,,,,,,,,,,,,,,,,
,,,,,,0,0,0,#DIV/0!,0.003660992,#DIV/0!,,,,,,,,,,,,,,,,
,,,,,,0,0,0,#DIV/0!,0.003660992,#DIV/0!,,,,,,,,,,,,,,,,
,,,,,,0,0,0,#DIV/0!,0.003660992,#DIV/0!,,,,,,,,,,,,,,,,
,,,,,,0,0,0,#DIV/0!,0.003660992,#DIV/0!,,,,,,,,,,,,,,,,
,,,,,,0,0,0,#DIV/0!,0.003660992,#DIV/0!,,,,,,,,,,,,,,,,
,,,,,,0,0,0,#DIV/0!,0.003660992,#DIV/0!,,,,,,,,,,,,,,,,
,,,,,,0,0,0,#DIV/0!,0.003660992,#DIV/0!,,,,,,,,,,,,,,,,
,,,,,,0,0,0,#DIV/0!,0.003660992,#DIV/0!,,,,,,,,,,,,,,,,
,,,,,,0,0,0,#DIV/0!,0.003660992,#DIV/0!,,,,,,,,,,,,,,,,
,,,,,,0,0,0,#DIV/0!,0.003660992,#DIV/0!,,,,,,,,,,,,,,,,
,,,,,,0,0,0,#DIV/0!,0.003660992,#DIV/0!,,,,,,,,,,,,,,,,
,,,,,,0,0,0,#DIV/0!,0.003660992,#DIV/0!,,,,,,,,,,,,,,,,
,,,,,,0,0,0,#DIV/0!,0.003660992,#DIV/0!,,,,,,,,,,,,,,,,
,,,,,,0,0,0,#DIV/0!,0.003660992,#DIV/0!,,,,,,,,,,,,,,,,
,,,,,,0,0,0,#DIV/0!,0.003660992,#DIV/0!,,,,,,,,,,,,,,,,
,,,,,,0,0,0,#DIV/0!,0.003660992,#DIV/0!,,,,,,,,,,,,,,,,
,,,,,,0,0,0,#DIV/0!,0.003660992,#DIV/0!,,,,,,,,,,,,,,,,
,,,,,,0,0,0,#DIV/0!,0.003660992,#DIV/0!,,,,,,,,,,,,,,,,
,,,,,,0,0,0,#DIV/0!,0.003660992,#DIV/0!,,,,,,,,,,,,,,,,
,,,,,,0,0,0,#DIV/0!,0.003660992,#DIV/0!,,,,,,,,,,,,,,,,
,,,,,,0,0,0,#DIV/0!,0.003660992,#DIV/0!,,,,,,,,,,,,,,,,
,,,,,,0,0,0,#DIV/0!,0.003660992,#DIV/0!,,,,,,,,,,,,,,,,
,,,,,,0,0,0,#DIV/0!,0.003660992,#DIV/0!,,,,,,,,,,,,,,,,
,,,,,,0,0,0,#DIV/0!,0.003660992,#DIV/0!,,,,,,,,,,,,,,,,
,,,,,,0,0,0,#DIV/0!,0.003660992,#DIV/0!,,,,,,,,,,,,,,,,
,,,,,,0,0,0,#DIV/0!,0.003660992,#DIV/0!,,,,,,,,,,,,,,,,
,,,,,,0,0,0,#DIV/0!,0.003660992,#DIV/0!,,,,,,,,,,,,,,,,
,,,,,,0,0,0,#DIV/0!,0.003660992,#DIV/0!,,,,,,,,,,,,,,,,
,,,,,,0,0,0,#DIV/0!,0.003660992,#DIV/0!,,,,,,,,,,,,,,,,
,,,,,,0,0,0,#DIV/0!,0.003660992,#DIV/0!,,,,,,,,,,,,,,,,
,,,,,,0,,,#DIV/0!,0.003660992,#DIV/0!,,,,,,,,,,,,,,,,
,,,,,,0,,,#DIV/0!,0.003660992,#DIV/0!,,,,,,,,,,,,,,,,
,,,,,,0,,,#DIV/0!,0.003660992,#DIV/0!,,,,,,,,,,,,,,,,
,,,,,,0,,,#DIV/0!,0.003660992,#DIV/0!,,,,,,,,,,,,,,,,
,,,,,,0,,,#DIV/0!,0.003660992,#DIV/0!,,,,,,,,,,,,,,,,
,,,,,,0,,,#DIV/0!,0.003660992,#DIV/0!,,,,,,,,,,,,,,,,
,,,,,,0,,,#DIV/0!,0.003660992,#DIV/0!,,,,,,,,,,,,,,,,
,,,,,,0,,,#DIV/0!,0.003660992,#DIV/0!,,,,,,,,,,,,,,,,
,,,,,,0,,,#DIV/0!,0.003660992,#DIV/0!,,,,,,,,,,,,,,,,
,,,,,,0,,,#DIV/0!,0.003660992,#DIV/0!,,,,,,,,,,,,,,,,
,,,,,,0,,,#DIV/0!,0.003660992,#DIV/0!,,,,,,,,,,,,,,,,
,,,,,,0,,,#DIV/0!,0.003660992,#DIV/0!,,,,,,,,,,,,,,,,
,,,,,,0,,,#DIV/0!,0.003660992,#DIV/0!,,,,,,,,,,,,,,,,
,,,,,,0,,,#DIV/0!,0.003660992,#DIV/0!,,,,,,,,,,,,,,,,
,,,,,,0,,,#DIV/0!,0.003660992,#DIV/0!,,,,,,,,,,,,,,,,
,,,,,,0,,,#DIV/0!,0.003660992,#DIV/0!,,,,,,,,,,,,,,,,
,,,,,,0,,,#DIV/0!,0.003660992,#DIV/0!,,,,,,,,,,,,,,,,
,,,,,,0,,,#DIV/0!,0.003660992,#DIV/0!,,,,,,,,,,,,,,,,
,,,,,,0,,,#DIV/0!,0.003660992,#DIV/0!,,,,,,,,,,,,,,,,
,,,,,,0,,,#DIV/0!,0.003660992,#DIV/0!,,,,,,,,,,,,,,,,
,,,,,,0,,,#DIV/0!,0.003660992,#DIV/0!,,,,,,,,,,,,,,,,
,,,,,,0,,,#DIV/0!,0.003660992,#DIV/0!,,,,,,,,,,,,,,,,
,,,,,,0,,,#DIV/0!,0.003660992,#DIV/0!,,,,,,,,,,,,,,,,
,,,,,,0,,,#DIV/0!,0.003660992,#DIV/0!,,,,,,,,,,,,,,,,
,,,,,,0,,,#DIV/0!,0.003660992,#DIV/0!,,,,,,,,,,,,,,,,
,,,,,,0,,,#DIV/0!,0.003660992,#DIV/0!,,,,,,,,,,,,,,,,