Folder: Reaction-Rate/cffp (part 6)

File: char_NF_reground_2_11_10.csv
#FILE:                       ,Char_NF_reground_2_11_10.dsu  ,,,,,,,,,,,
#FORMAT:                     ,NETZSCH5                      ,,,,,,,,,,,
#IDENTITY:                   ,Char NF                       ,,,,,,,,,,,
#DECIMAL:                    ,POINT                         ,,,,,,,,,,,
#SEPARATOR:                  ,COMMA                         ,,,,,,,,,,,
#MTYPE:                      ,DTA                           ,,,,,,,,,,,
#MSUBTYPE:                   ,                              ,,,,,,,,,,,
#INSTRUMENT:                 ,NETZSCH STA 449 C             ,,,,,,,,,,,
#PROJECT:                    ,Torrefaction                  ,,,,,,,,,,,
#DATE/TIME:                  ,02/11/2010 12:33,,,,,,,,,,,
#CORR. FILE:                 ,buoyancy_drying_13_10_10.bsu  ,,,,,,,,,,,
#LABORATORY:                 ,Sustainable Research Energ    ,,,,,,,,,,,
#OPERATOR:                   ,A Saddawi                     ,,,,,,,,,,,
#REMARK:                     ,                              ,,,,,,,,,,,
#SAMPLE:                     ,nonisoth oxid with init drying,,,,,,,,,,,
#SAMPLE MASS /mg:            ,9.98,,,,,,,,,,,
#MATERIAL:                   ,char                          ,,,,,,,,,,,
#REFERENCE:                  ,Alumina                       ,,,,,,,,,,,
#REFERENCE MASS /mg:         ,0,,,,,,,,,,,
#TYPE OF CRUCIBLE:           ,DTA/TG crucible Al2O3         ,,,,,,,,,,,
#SAMPLE CRUCIBLE MASS /mg:   ,0,,,,,,,,,,,
#REFERENCE CRUCIBLE MASS /mg:,0,,,,,,,,,,,
#CORR. CODE:                 ,20,,,,,,,,,,,
#EXO:                        ,-1,,,,,,,,,,,
#RANGE:                      ,30.0....900.0/0.0....10.0K/min,,,,,,,,,,,
#SEGMENT:                    ,S1-4/4                        ,,,,,,,,,,,
,,,,,,,,,,,,
##Temp./øC,Time/min,DTA/(mW/mg),Mass/%,DTG/(%/min),Sensit./(æV/mW),Segment,,,,,,
45.437,0.00E+00,-0.37442,100,-3.17E-02,9.57E-02,1,,,,,,
44.934,0.54,-0.37011,99.96894,-6.07E-02,9.54E-02,1,,,,,,
44.462,1.08,-0.61041,99.90281,-0.21415,9.52E-02,1,,,,,,
44.011,1.62,-1.78129,99.8016,-0.19903,9.50E-02,1,,,,,,
43.606,2.16,-3.15238,99.72345,-6.34E-02,9.48E-02,1,,,,,,
44.57,2.7,-3.6618,99.71944,6.62E-02,9.53E-02,1,,,,,,
48.065,3.24,-3.05486,99.73848,2.91E-02,9.69E-02,1,,,,,,
53.567,3.78,-2.20748,99.7485,3.41E-02,9.96E-02,1,,,,,,
60.328,4.32,-1.52658,99.74048,-5.27E-02,0.10289,1,,,,,,
67.638,4.86,-1.05702,99.71242,-6.87E-02,0.10653,1,,,,,,
75.067,5.4,-0.80746,99.66333,-0.11061,0.11029,1,,,,,,
82.385,5.94,-0.74566,99.59519,-0.13199,0.11405,1,,,,,,
89.53,6.48,-0.79435,99.52004,-9.22E-02,0.11778,1,,,,,,
96.36,7.02,-0.87798,99.43687,-0.16421,0.1214,2,,,,,,
102.793,7.56,-0.78552,99.36473,-0.12377,0.12485,2,,,,,,
107.803,8.1,-0.47524,99.2986,-0.10529,0.12756,2,,,,,,
111.152,8.64,-0.212,99.24549,-0.19224,0.12939,2,,,,,,
113.053,9.18,-2.88E-03,99.2024,-6.93E-02,0.13043,2,,,,,,
113.802,9.72,0.13785,99.17335,-6.49E-02,0.13084,2,,,,,,
113.704,10.26,0.2241,99.1503,-3.01E-02,0.13078,2,,,,,,
112.971,10.8,0.27378,99.13026,-2.31E-02,0.13038,2,,,,,,
111.789,11.34,0.31859,99.12124,-5.16E-03,0.12974,2,,,,,,
110.277,11.88,0.34201,99.11423,7.92E-03,0.12891,2,,,,,,
108.537,12.42,0.35433,99.10521,7.19E-03,0.12796,2,,,,,,
106.637,12.96,0.35623,99.1022,-1.06E-02,0.12693,2,,,,,,
104.613,13.5,0.34938,99.1022,1.69E-03,0.12583,2,,,,,,
102.544,14.04,0.32941,99.10421,-1.64E-02,0.12471,2,,,,,,
100.432,14.58,0.32331,99.10421,-1.28E-03,0.12358,2,,,,,,
98.362,15.12,0.30579,99.11022,2.46E-02,0.12247,2,,,,,,
96.798,15.66,0.24919,99.11623,6.22E-03,0.12163,2,,,,,,
96.1,16.2,0.14151,99.10721,1.16E-02,0.12126,2,,,,,,
96.12,16.74,4.75E-02,99.11323,1.51E-02,0.12127,2,,,,,,
96.548,17.28,-2.58E-02,99.11623,-2.17E-02,0.1215,2,,,,,,
97.129,17.82,-5.35E-02,99.11122,2.01E-02,0.12181,2,,,,,,
97.697,18.36,-6.26E-02,99.11423,-2.05E-02,0.12211,2,,,,,,
98.19,18.9,-6.24E-02,99.11623,1.58E-02,0.12238,2,,,,,,
98.582,19.44,-4.39E-02,99.11723,2.06E-03,0.12259,2,,,,,,
98.875,19.98,-3.57E-02,99.11423,-8.48E-03,0.12274,2,,,,,,
99.121,20.52,-2.45E-02,99.11122,1.88E-02,0.12288,2,,,,,,
99.301,21.06,-1.63E-02,99.11222,9.08E-03,0.12297,2,,,,,,
99.444,21.6,-1.22E-02,99.11323,1.88E-02,0.12305,2,,,,,,
99.573,22.14,-3.05E-03,99.11623,-5.31E-02,0.12312,3,,,,,,
99.672,22.68,-6.10E-03,99.1012,3.93E-02,0.12317,3,,,,,,
99.743,23.22,-1.42E-02,99.1493,5.39E-02,0.12321,3,,,,,,
99.79,23.76,-1.93E-02,99.17635,4.35E-02,0.12323,3,,,,,,
99.839,24.3,-1.22E-02,99.19038,1.01E-02,0.12326,3,,,,,,
99.885,24.84,-9.14E-03,99.19138,-3.16E-02,0.12329,3,,,,,,
99.919,25.38,-4.06E-03,99.1994,-1.35E-02,0.1233,3,,,,,,
99.952,25.92,2.03E-03,99.2004,2.36E-02,0.12332,3,,,,,,
99.976,26.46,1.02E-03,99.2014,1.82E-02,0.12333,3,,,,,,
99.984,27,1.02E-03,99.20341,1.61E-02,0.12334,3,,,,,,
100.143,27.54,-9.74E-02,99.2014,-6.79E-03,0.12342,4,,,,,,
101.756,28.08,-0.60161,99.19439,-2.12E-03,0.12429,4,,,,,,
105.457,28.62,-1.23279,99.18637,7.19E-03,0.12629,4,,,,,,
110.83,29.16,-1.81366,99.17635,-2.92E-02,0.12921,4,,,,,,
117.274,29.7,-2.25217,99.16633,-5.80E-02,0.13275,4,,,,,,
124.217,30.24,-2.52887,99.1513,-2.90E-02,0.1366,4,,,,,,
131.274,30.78,-2.68858,99.13427,-8.49E-03,0.14055,4,,,,,,
138.236,31.32,-2.77144,99.11122,-6.52E-02,0.14448,4,,,,,,
144.974,31.86,-2.82475,99.08717,-3.00E-02,0.14832,4,,,,,,
151.467,32.4,-2.88165,99.06313,-3.70E-02,0.15204,4,,,,,,
157.718,32.94,-2.94129,99.03507,-3.50E-02,0.15564,4,,,,,,
163.782,33.48,-3.02039,99.00902,-4.97E-02,0.15916,4,,,,,,
169.694,34.02,-3.11213,98.98998,-2.84E-02,0.16259,4,,,,,,
175.534,34.56,-3.20971,98.97194,-5.01E-02,0.166,4,,,,,,
181.259,35.1,-3.30893,98.9499,-4.12E-02,0.16935,4,,,,,,
186.958,35.64,-3.42334,98.93387,-5.11E-02,0.17269,4,,,,,,
192.603,36.18,-3.53327,98.92184,-3.46E-02,0.176,4,,,,,,
198.193,36.72,-3.64946,98.90681,-2.34E-02,0.17929,4,,,,,,
203.728,37.26,-3.76902,98.89078,-2.92E-03,0.18254,4,,,,,,
209.237,37.8,-3.8807,98.88076,-3.24E-02,0.18578,4,,,,,,
214.717,38.34,-4.01485,98.86774,-2.50E-02,0.18899,4,,,,,,
220.172,38.88,-4.14039,98.8517,-2.51E-02,0.19218,4,,,,,,
225.604,39.42,-4.26938,98.83768,-6.73E-04,0.19535,4,,,,,,
231.016,39.96,-4.41229,98.82365,-2.54E-02,0.19851,4,,,,,,
236.423,40.5,-4.54489,98.80762,-1.23E-02,0.20165,4,,,,,,
241.82,41.04,-4.69956,98.79459,-1.90E-02,0.20476,4,,,,,,
247.21,41.58,-4.83197,98.77455,-3.51E-02,0.20786,4,,,,,,
252.592,42.12,-4.98357,98.75852,-4.44E-02,0.21094,4,,,,,,
257.963,42.66,-5.13846,98.73046,-5.34E-02,0.21399,4,,,,,,
263.336,43.2,-5.29756,98.7024,-4.52E-02,0.21702,4,,,,,,
268.7,43.74,-5.46665,98.67234,-6.20E-02,0.22002,4,,,,,,
274.059,44.28,-5.63864,98.63828,-4.63E-02,0.223,4,,,,,,
279.42,44.82,-5.82119,98.5992,-9.68E-02,0.22594,4,,,,,,
284.76,45.36,-6.00831,98.5521,-5.57E-02,0.22885,4,,,,,,
290.096,45.9,-6.21866,98.50601,-0.11073,0.23172,4,,,,,,
295.451,46.44,-6.43143,98.43988,-0.15451,0.23457,4,,,,,,
300.795,46.98,-6.66135,98.36774,-0.1437,0.23738,4,,,,,,
306.154,47.52,-6.90082,98.29259,-0.18915,0.24016,4,,,,,,
311.506,48.06,-7.15318,98.1994,-0.18964,0.2429,4,,,,,,
316.853,48.6,-7.41533,98.09319,-0.18701,0.24559,4,,,,,,
322.199,49.14,-7.68535,97.96894,-0.27851,0.24824,4,,,,,,
327.572,49.68,-7.97914,97.83166,-0.26084,0.25086,4,,,,,,
332.914,50.22,-8.28619,97.66834,-0.31495,0.25341,4,,,,,,
338.259,50.76,-8.60436,97.48397,-0.37332,0.25592,4,,,,,,
343.623,51.3,-8.93381,97.27755,-0.36691,0.25839,4,,,,,,
348.983,51.84,-9.27626,97.04409,-0.42759,0.2608,4,,,,,,
354.329,52.38,-9.63132,96.76854,-0.52123,0.26315,4,,,,,,
[...]
429.431,59.94,-17.27799,87.16533,-2.50586,0.28948,4,,,,,,
434.796,60.48,-18.08481,85.73046,-4.48305,0.29083,4,,,,,,
440.164,61.02,-18.87162,84.03006,-2.94201,0.29209,4,,,,,,
445.539,61.56,-19.5996,82.29459,-3.4268,0.29328,4,,,,,,
450.906,62.1,-20.25936,80.46994,-3.57244,0.29439,4,,,,,,
456.279,62.64,-20.834,78.51202,-3.57199,0.29542,4,,,,,,
461.646,63.18,-21.34268,76.46493,-3.88021,0.29637,4,,,,,,
467.013,63.72,-21.80066,74.33868,-4.11016,0.29723,4,,,,,,
472.389,64.26,-22.2289,72.13026,-4.19002,0.29801,4,,,,,,
477.733,64.8,-22.67749,69.8487,-4.42846,0.29871,4,,,,,,
483.108,65.34,-23.15746,67.4519,-4.45254,0.29932,4,,,,,,
488.469,65.88,-23.68264,64.9509,-4.77165,0.29985,4,,,,,,
493.844,66.42,-24.24616,62.32565,-5.12923,0.30029,4,,,,,,
499.218,66.96,-24.84466,59.55811,-5.07598,0.30065,4,,,,,,
504.585,67.5,-25.44859,56.6533,-5.50908,0.30092,4,,,,,,
509.96,68.04,-26.05716,53.57715,-5.88329,0.30111,4,,,,,,
515.328,68.58,-26.64724,50.38477,-5.96898,0.30121,4,,,,,,
520.712,69.12,-27.17275,47.04509,-6.40361,0.30123,4,,,,,,
526.083,69.66,-27.60714,43.58216,-6.45915,0.30115,4,,,,,,
531.437,70.2,-27.90652,40.03106,-6.29738,0.301,4,,,,,,
536.788,70.74,-27.9997,36.45391,-6.72494,0.30076,4,,,,,,
542.145,71.28,-27.83333,32.91583,-6.40546,0.30043,4,,,,,,
547.497,71.82,-27.43137,29.40681,-6.37052,0.30002,4,,,,,,
552.852,72.36,-26.98239,25.97895,-6.31028,0.29953,4,,,,,,
558.208,72.9,-26.5091,22.60922,-6.36376,0.29895,4,,,,,,
563.57,73.44,-26.00115,19.31763,-6.03917,0.29829,4,,,,,,
568.922,73.98,-25.2848,16.10721,-5.84995,0.29754,4,,,,,,
574.264,74.52,-23.13966,13.1533,-5.13744,0.29672,4,,,,,,
579.477,75.06,-11.06024,11.82264,-0.20188,0.29584,4,,,,,,
584.572,75.6,-4.95856,11.78757,-0.25463,0.2949,4,,,,,,
589.851,76.14,-3.28491,11.77454,-6.16E-02,0.29386,4,,,,,,
595.275,76.68,-2.74713,11.74348,-8.16E-02,0.29271,4,,,,,,
600.749,77.22,-2.56891,11.69639,-4.64E-02,0.29147,4,,,,,,
606.206,77.76,-2.50934,11.66532,-6.27E-02,0.29015,4,,,,,,
611.67,78.3,-2.48463,11.63226,-2.24E-02,0.28875,4,,,,,,
617.118,78.84,-2.44068,11.59819,-6.56E-02,0.28728,4,,,,,,
622.547,79.38,-2.378,11.56212,-8.82E-02,0.28574,4,,,,,,
627.98,79.92,-2.29101,11.51803,-7.49E-02,0.28412,4,,,,,,
633.396,80.46,-2.17872,11.46192,-8.10E-02,0.28244,4,,,,,,
638.823,81,-2.04107,11.4018,-0.18829,0.28068,4,,,,,,
644.24,81.54,-1.89316,11.33266,-0.10519,0.27886,4,,,,,,
649.647,82.08,-1.69984,11.26152,-0.17469,0.27698,4,,,,,,
655.063,82.62,-1.50652,11.17335,-0.12715,0.27502,4,,,,,,
660.473,83.16,-1.33001,11.09318,-0.18342,0.27301,4,,,,,,
665.88,83.7,-1.22,11.01904,-4.11E-02,0.27093,4,,,,,,
671.287,84.24,-1.17006,10.97194,-3.66E-02,0.26879,4,,,,,,
676.703,84.78,-1.1332,10.93988,-7.01E-02,0.26659,4,,,,,,
682.113,85.32,-1.11823,10.91182,-9.50E-03,0.26434,4,,,,,,
687.516,85.86,-1.11325,10.88877,-0.11502,0.26203,4,,,,,,
692.925,86.4,-1.11325,10.87975,-1.68E-02,0.25967,4,,,,,,
698.316,86.94,-1.11442,10.86272,-6.86E-03,0.25726,4,,,,,,
703.721,87.48,-1.12469,10.84669,-7.97E-02,0.2548,4,,,,,,
709.128,88.02,-1.13588,10.82966,3.07E-03,0.25229,4,,,,,,
714.528,88.56,-1.15251,10.81563,-1.62E-02,0.24974,4,,,,,,
719.927,89.1,-1.16715,10.79358,-5.70E-02,0.24714,4,,,,,,
725.336,89.64,-1.18079,10.76653,-3.97E-02,0.2445,4,,,,,,
730.742,90.18,-1.20218,10.7525,-3.71E-02,0.24182,4,,,,,,
736.137,90.72,-1.22054,10.73246,2.91E-03,0.2391,4,,,,,,
741.545,91.26,-1.24484,10.71242,-3.81E-02,0.23635,4,,,,,,
746.95,91.8,-1.26829,10.69939,-2.10E-02,0.23356,4,,,,,,
752.356,92.34,-1.29085,10.68437,-3.33E-02,0.23074,4,,,,,,
757.76,92.88,-1.32569,10.66232,-2.00E-02,0.22788,4,,,,,,
763.164,93.42,-1.35155,10.6523,-3.18E-02,0.22501,4,,,,,,
767.655,93.87,-1.37633,10.64529,-2.10E-02,0.22259,4,,,,,,

File: char_QD_30_06_10.csv
#FILE:                       ,char_QD_30_06_10.dsu
#FORMAT:                     ,NETZSCH5
#IDENTITY:                   ,Char QD
#DECIMAL:                    ,POINT
#SEPARATOR:                  ,COMMA
#MTYPE:                      ,DTA
#MSUBTYPE:                   ,
#INSTRUMENT:                 ,NETZSCH STA 449 C
#PROJECT:                    ,Torrefaction
#DATE/TIME:                  ,30/06/2010 13:26:45
#CORR. FILE:                 ,char_GF_23_06_10.bsu
#LABORATORY:                 ,Sustainable Research Energ
#OPERATOR:                   ,Xiaomian Baxter
#REMARK:                     ,
#SAMPLE:                     ,nonisoth oxid with init drying
#SAMPLE MASS /mg:            ,9.270
#MATERIAL:                   ,char
#REFERENCE:                  ,Alumina
#REFERENCE MASS /mg:         ,0.000
#TYPE OF CRUCIBLE:           ,DTA/TG crucible Al2O3
#SAMPLE CRUCIBLE MASS /mg:   ,0.000
#REFERENCE CRUCIBLE MASS /mg:,0.000
#CORR. CODE:                 ,020
#EXO:                        ,-1
#RANGE:                      ,30.0....900.0/-20.0....10.0K/min
#SEGMENT:                    ,S1-5/5

##Temp./øC,Time/min,DTA/(mW/mg),Mass/%,Sensit./(æV/mW),Segment
 32.11100,0.0000e+000, 6.3314e-002,100,8.9451e-002,1
 32.21200,    0.81000, 5.4241e-002, 99.98382,8.9497e-002,1
 35.21900,    1.62000,    -0.13799, 99.97303,9.0881e-002,1
 42.68000,    2.43000,    -0.34866, 99.95901,9.4366e-002,1
 52.58400,    3.24000,    -0.49529, 99.93743,9.9101e-002,1
 63.27400,    4.05000,    -0.55697, 99.88350,    0.10435,1
 73.80500,    4.86000,    -0.60755, 99.79612,    0.10964,1
 83.86700,    5.67000,    -0.66234, 99.69364,    0.11482,1
 93.52900,    6.48000,    -0.72991, 99.58792,    0.11990,1
102.7,    7.29000,    -0.77039, 99.49622,    0.12480,2
110.128,    8.10000,    -0.37367, 99.41424,    0.12883,2
114.183,    8.91000,-4.2188e-002, 99.35383,    0.13105,2
115.442,    9.72000,     0.12385, 99.31392,    0.13174,2
114.833,   10.53000,     0.21447, 99.27832,    0.13140,2
113.019,   11.34000,     0.24713, 99.26321,    0.13041,2
110.494,   12.15000,     0.26963, 99.24703,    0.12903,2
107.548,   12.96000,     0.26350, 99.25782,    0.12742,2
104.362,   13.77000,     0.25425, 99.25458,    0.12570,2
101.073,   14.58000,     0.23503, 99.24919,    0.12392,2
 97.85600,   15.39000,     0.19311, 99.24919,    0.12220,2
 95.92600,   16.20000,     0.11240, 99.24919,    0.12117,2
 95.80400,   17.01000, 5.6787e-002, 99.25243,    0.12110,2
 96.60900,   17.82000, 5.4368e-002, 99.25135,    0.12153,2
 97.55100,   18.63000, 5.6352e-002, 99.25566,    0.12204,2
 98.29900,   19.44000, 7.8195e-002, 99.23840,    0.12244,2
 98.81800,   20.25000, 9.1204e-002, 99.23840,    0.12271,2
 99.17100,   21.06000,     0.10094, 99.23732,    0.12290,2
 99.41700,   21.87000,     0.10083, 99.23517,    0.12303,2
 99.58700,   22.68000, 9.3089e-002, 99.18447,    0.12313,3
 99.69900,   23.49000, 5.3637e-002, 99.26861,    0.12319,3
 99.77100,   24.30000, 5.6903e-002, 99.29342,    0.12322,3
 99.84500,   25.11000, 7.1106e-002, 99.28371,    0.12326,3
 99.92300,   25.92000, 8.6392e-002, 99.28479,    0.12331,3
 99.97700,   26.73000, 8.0905e-002, 99.29558,    0.12333,3
100.14,   27.54000, 2.1851e-003, 99.29881,    0.12342,4
103.168,   28.35000,    -0.64806, 99.28803,    0.12505,4
110.473,   29.16000,    -1.33573, 99.27184,    0.12902,4
120.324,   29.97000,    -1.76033, 99.24919,    0.13444,4
130.952,   30.78000,    -1.95201, 99.22869,    0.14037,4
141.429,   31.59000,    -2.03514, 99.21036,    0.14630,4
151.341,   32.40000,    -2.10028, 99.16181,    0.15197,4
160.687,   33.21000,    -2.19283, 99.13916,    0.15736,4
169.651,   34.02000,    -2.30838, 99.11435,    0.16257,4
178.321,   34.83000,    -2.46873, 99.08522,    0.16763,4
186.86,   35.64000,    -2.61588, 99.06904,    0.17263,4
195.295,   36.45000,    -2.76541, 99.04531,    0.17759,4
203.619,   37.26000,    -2.94402, 99.01510,    0.18248,4
211.87,   38.07000,    -3.12200, 99.00432,    0.18732,4
220.068,   38.88000,    -3.29944, 98.97627,    0.19212,4
228.229,   39.69000,    -3.48398, 98.95901,    0.19689,4
236.343,   40.50000,    -3.68212, 98.94391,    0.20160,4
244.443,   41.31000,    -3.86736, 98.90939,    0.20627,4
252.504,   42.12000,    -4.06348, 98.87379,    0.21089,4
260.553,   42.93000,    -4.27714, 98.84250,    0.21545,4
268.609,   43.74000,    -4.49099, 98.80798,    0.21997,4
276.644,   44.55000,    -4.72090, 98.75620,    0.22442,4
284.679,   45.36000,    -4.95514, 98.69579,    0.22881,4
292.699,   46.17000,    -5.19678, 98.62891,    0.23311,4
300.719,   46.98000,    -5.45129, 98.53937,    0.23734,4
308.753,   47.79000,    -5.72494, 98.43905,    0.24150,4
316.788,   48.60000,    -6.01845, 98.31392,    0.24556,4
324.824,   49.41000,    -6.32161, 98.16721,    0.24953,4
332.84,   50.22000,    -6.62942, 98.00000,    0.25338,4
340.87,   51.03000,    -6.93237, 97.80043,    0.25713,4
348.887,   51.84000,    -7.22431, 97.58252,    0.26075,4
356.893,   52.65000,    -7.50063, 97.34520,    0.26425,4
364.912,   53.46000,    -7.77076, 97.08846,    0.26763,4
372.942,   54.27000,    -8.03900, 96.80906,    0.27088,4
380.973,   55.08000,    -8.32234, 96.52751,    0.27399,4
389.013,   55.89000,    -8.61882, 96.20712,    0.27695,4
397.053,   56.70000,    -8.94034, 95.86731,    0.27977,4
405.097,   57.51000,    -9.29442, 95.48975,    0.28243,4
413.153,   58.32000,    -9.66424, 95.06580,    0.28493,4
421.202,   59.13000,   -10.07339, 94.58684,    0.28727,4
429.245,   59.94000,   -10.51376, 94.05070,    0.28943,4
437.299,   60.75000,   -10.99751, 93.44444,    0.29143,4
445.363,   61.56000,   -11.53163, 92.72923,    0.29325,4
453.426,   62.37000,   -12.12738, 91.92557,    0.29489,4
461.48,   63.18000,   -12.80548, 90.95793,    0.29634,4
469.554,   63.99000,   -13.56224, 89.82956,    0.29761,4
477.609,   64.80000,   -14.36601, 88.50809,    0.29869,4
485.685,   65.61000,   -15.22603, 86.96548,    0.29959,4
493.739,   66.42000,   -16.13267, 85.20388,    0.30028,4
501.805,   67.23000,   -17.09481, 83.16181,    0.30079,4
509.877,   68.04000,   -18.10602, 80.70982,    0.30111,4
517.949,   68.85000,   -19.07954, 78.01834,    0.30123,4
526.027,   69.66000,   -20.03029, 75.03236,    0.30116,4
534.099,   70.47000,   -20.98604, 71.71737,    0.30089,4
542.17,   71.28000,   -21.94770, 68.04747,    0.30043,4
550.247,   72.09000,   -22.96928, 64.05502,    0.29978,4
558.327,   72.90000,   -24.12928, 59.76160,    0.29893,4
566.404,   73.71000,   -25.99756, 54.29990,    0.29790,4
574.521,   74.52000,   -26.65032, 48.88889,    0.29668,4
582.566,   75.33000,   -27.86419, 42.98058,    0.29528,4
590.619,   76.14000,   -28.94319, 36.71414,    0.29370,4
598.674,   76.95000,   -29.21011, 30.40777,    0.29195,4
606.701,   77.76000,   -28.52125, 24.40669,    0.29002,4
614.645,   78.57000,   -26.08227, 18.83927,    0.28796,4
622.524,   79.38000,   -14.15900, 14.88026,    0.28574,4
630.185,   80.19000,    -2.25115, 14.93636,    0.28345,4
638.251,   81.00000,    -0.60731, 14.67315,    0.28087,4
646.489,   81.81000,    -0.24778, 14.69040,    0.27809,4
654.674,   82.62000,    -0.11859, 14.60518,    0.27517,4
662.854,   83.43000,-6.3928e-002, 14.53291,    0.27210,4
671.01,   84.24000,-4.3125e-002, 14.49946,    0.26890,4
679.169,   85.05000,-2.5387e-002, 14.48328,    0.26557,4
687.294,   85.86000,-1.0288e-002, 14.44553,    0.26213,4
[...]
727.904,   89.91000, 8.6484e-002, 14.44769,    0.24323,4
735.994,   90.72000,     0.11783, 14.50810,    0.23918,4
744.111,   91.53000,     0.15835, 14.34628,    0.23503,4
752.243,   92.34000,     0.16067, 14.41208,    0.23079,4
760.328,   93.15000,     0.19049, 14.40454,    0.22652,4
768.44,   93.96000,     0.22760, 14.38188,    0.22217,4
776.542,   94.77000,     0.25511, 14.41748,    0.21777,4
784.657,   95.58000,     0.28951, 14.08523,    0.21332,4
792.778,   96.39000,     0.29704, 14.41748,    0.20882,4
800.873,   97.20000,     0.31417, 14.45416,    0.20430,4
808.986,   98.01000,     0.33753, 14.34520,    0.19975,4
817.096,   98.82000,     0.34061, 14.35599,    0.19517,4
825.207,   99.63000,     0.32829, 14.38943,    0.19059,4
833.315,  100.44,     0.32699, 14.37973,    0.18598,4
841.435,  101.25,     0.32860, 14.39375,    0.18138,4
849.542,  102.06,     0.31274, 14.39159,    0.17678,4
857.64,  102.87,     0.28661, 14.38512,    0.17219,4
865.75,  103.68,     0.27031, 14.39590,    0.16761,4
873.865,  104.49,     0.24975, 14.38619,    0.16305,4
881.96,  105.3,     0.20840, 14.39051,    0.15853,4
890.074,  106.11,     0.20136, 14.39914,    0.15402,4
898.191,  106.92,     0.13074, 14.39375,    0.14955,4
895.314,  107.918,    -0.70666, 14.40022,    0.15113,5
874.75,  108.93,    -0.55992, 14.42503,    0.16256,5
852.593,  109.942,    -0.38362, 14.47897,    0.17505,5
830.917,  110.955,    -0.24904, 14.46063,    0.18734,5
809.505,  111.968,    -0.15955, 13.90831,    0.19946,5
788.296,  112.98,-8.9977e-002, 14.47358,    0.21131,5
767.266,  113.993,-1.6341e-002, 14.47897,    0.22280,5
746.383,  115.005, 5.3626e-002, 14.48221,    0.23385,5
725.645,  116.017,     0.11479, 14.32255,    0.24435,5
704.972,  117.03,     0.15859, 14.49407,    0.25422,5
684.407,  118.043,     0.20173, 14.50162,    0.26337,5
663.894,  119.055,     0.23971, 15.29127,    0.27170,5
643.495,  120.067,     0.25846, 14.50917,    0.27912,5
623.122,  121.08,     0.28662, 14.62028,    0.28557,5
602.776,  122.093,     0.31048, 14.53830,    0.29099,5
582.411,  123.105,     0.33516, 14.56203,    0.29531,5
562.126,  124.118,     0.35284, 14.56311,    0.29847,5
541.828,  125.13,     0.36263, 14.58037,    0.30045,5
521.569,  126.142,     0.37917, 14.57282,    0.30122,5
501.324,  127.155,     0.39274, 14.59224,    0.30077,5
481.092,  128.167,     0.40755, 14.64402,    0.29910,5
460.839,  129.18,     0.42561, 14.62891,    0.29623,5
440.605,  130.192,     0.43657, 14.65265,    0.29219,5
420.36,  131.205,     0.45147, 14.65373,    0.28703,5
400.136,  132.218,     0.45475, 14.67422,    0.28081,5
380.034,  133.23,     0.46076, 14.67854,    0.27363,5
360.364,  134.242,     0.46127, 14.69256,    0.26573,5
341.505,  135.255,     0.46569, 14.70335,    0.25742,5
323.603,  136.268,     0.45611, 14.71090,    0.24893,5
306.7,  137.28,     0.44753, 14.71198,    0.24044,5
290.741,  138.292,     0.44276, 14.72169,    0.23207,5
275.708,  139.305,     0.44265, 14.73571,    0.22390,5
261.479,  140.317,     0.43954, 14.73031,    0.21597,5
248.023,  141.33,     0.41684, 14.75297,    0.20833,5
235.279,  142.343,     0.40389, 14.75728,    0.20098,5
223.226,  143.355,     0.39208, 14.77239,    0.19397,5
211.813,  144.367,     0.37799, 14.78102,    0.18729,5
200.965,  145.38,     0.36894, 14.79072,    0.18092,5
190.697,  146.393,     0.35005, 14.79720,    0.17489,5
180.965,  147.405,     0.34034, 14.80799,    0.16918,5
171.754,  148.417,     0.32930, 14.80475,    0.16379,5
163.068,  149.43,     0.32789, 14.82309,    0.15874,5
154.812,  150.442,     0.31529, 14.82632,    0.15397,5
154.122,  150.53,     0.31611, 14.82525,    0.15357,5