Folder: Reaction-Rate/cffp2

File: char_GB_reground_1_11_10.csv
#FILE:                       ,Char_GB_reground_1_11_10.dsu
#FORMAT:                     ,NETZSCH5
#IDENTITY:                   ,Char GB reground_1_11_10
#DECIMAL:                    ,POINT
#SEPARATOR:                  ,COMMA
#MTYPE:                      ,DTA
#MSUBTYPE:                   ,
#INSTRUMENT:                 ,NETZSCH STA 449 C
#PROJECT:                    ,Torrefaction
#DATE/TIME:                  ,01/11/2010 09:30:00
#CORR. FILE:                 ,buoyancy_drying_13_10_10.bsu
#LABORATORY:                 ,Sustainable Research Energ
#OPERATOR:                   ,A Saddawi
#REMARK:                     ,
#SAMPLE:                     ,nonisoth oxid with init drying
#SAMPLE MASS /mg:            ,10.460
#MATERIAL:                   ,char
#REFERENCE:                  ,Alumina
#REFERENCE MASS /mg:         ,0.000
#TYPE OF CRUCIBLE:           ,DTA/TG crucible Al2O3
#SAMPLE CRUCIBLE MASS /mg:   ,0.000
#REFERENCE CRUCIBLE MASS /mg:,0.000
#CORR. CODE:                 ,020
#EXO:                        ,-1
#RANGE:                      ,30.0....900.0/0.0....10.0K/min
#SEGMENT:                    ,S1-4/4

##Temp./øC,Time/min,DTA/(mW/mg),Mass/%,DTG/(%/min),Sensit./(æV/mW),Segment
 33.19700,0.0000e+000,     0.17803,100,-5.3032e-013,8.9949e-002,1
 33.25700,    0.73000,     0.14078, 99.94359,    -0.17642,8.9977e-002,1
 34.81200,    1.46000,    -0.25036, 99.82696,    -0.14655,9.0693e-002,1
 40.23200,    2.19000,    -0.50127, 99.71893,    -0.14627,9.3215e-002,1
 48.39400,    2.92000,    -0.56869, 99.56501,    -0.25000,9.7083e-002,1
 57.70000,    3.65000,    -0.57520, 99.36424,    -0.31933,    0.10159,1
 67.27700,    4.38000,    -0.56861, 99.12428,    -0.32771,    0.10634,1
 76.60800,    5.11000,    -0.61972, 98.88337,    -0.32488,    0.11107,1
 85.60500,    5.84000,    -0.71872, 98.66157,    -0.27874,    0.11573,1
 94.31300,    6.57000,    -0.81746, 98.46558,    -0.26562,    0.12031,1
102.638,    7.30000,    -0.86012, 98.30115,    -0.19557,    0.12477,2
109.465,    8.03000,    -0.53860, 98.15488,    -0.17909,    0.12847,2
113.469,    8.76000,    -0.21768, 98.04015,    -0.12502,    0.13066,2
115.1,    9.49000,-1.1809e-002, 97.95985,-5.8937e-002,    0.13155,2
115.027,   10.22000,     0.11813, 97.89293,-9.4309e-002,    0.13151,2
113.82,   10.95000,     0.19727, 97.84990,-5.8714e-002,    0.13085,2
111.897,   11.68000,     0.24123, 97.81166,-2.9045e-002,    0.12979,2
109.504,   12.41000,     0.25485, 97.78968,-9.0520e-003,    0.12848,2
106.836,   13.14000,     0.25869, 97.77533,    -0.11481,    0.12704,2
104.027,   13.87000,     0.25612, 97.76386,-3.5530e-003,    0.12551,2
101.117,   14.60000,     0.25743, 97.75335, 5.7381e-003,    0.12395,2
 98.24400,   15.33000,     0.21185, 97.74379, 0.0000e+000,    0.12241,2
 96.21100,   16.06000,-1.5760e-002, 97.73805, 6.3842e-003,    0.12132,2
 95.71900,   16.79000,-8.8843e-002, 97.73996,-2.0116e-002,    0.12106,2
 96.24600,   17.52000,-4.6288e-002, 97.73518,-1.7942e-002,    0.12134,2
 97.06900,   18.25000, 6.8691e-003, 97.73614,-4.3044e-002,    0.12178,2
 97.82800,   18.98000, 5.3793e-002, 97.72562,-1.9577e-002,    0.12218,2
 98.41300,   19.71000, 6.6338e-002, 97.72275, 1.0664e-002,    0.12250,2
 98.83500,   20.44000, 7.4980e-002, 97.71511,-2.3467e-002,    0.12272,2
 99.14100,   21.17000, 7.2935e-002, 97.70650, 1.4366e-002,    0.12289,2
 99.36900,   21.90000, 6.9948e-002, 97.70746,-7.4425e-003,    0.12301,2
 99.53300,   22.63000, 6.8927e-002, 97.91109,     0.85964,    0.12310,3
 99.64800,   23.36000, 7.1803e-002, 98.19694,-5.6983e-002,    0.12316,3
 99.73200,   24.09000, 6.8867e-002, 98.08222,    -0.22080,    0.12320,3
 99.80600,   24.82000, 6.7877e-002, 97.93977,    -0.20161,    0.12324,3
 99.85700,   25.55000, 7.1738e-002, 97.79254,    -0.18604,    0.12327,3
 99.90600,   26.28000, 7.9479e-002, 97.65010,    -0.12093,    0.12329,3
 99.93400,   27.01000, 8.5282e-002, 97.54493,    -0.14416,    0.12331,3
100.401,   27.74000,    -0.12476, 97.46463,-7.6927e-002,    0.12356,4
103.937,   28.47000,    -0.81912, 97.41874,-7.0135e-002,    0.12547,4
110.769,   29.20000,    -1.44594, 97.37476,-6.8710e-002,    0.12918,4
119.558,   29.93000,    -1.79061, 97.32696,-6.4549e-002,    0.13401,4
129.114,   30.66000,    -1.92372, 97.26960,-9.0608e-002,    0.13934,4
138.64,   31.39000,    -1.96209, 97.17591,    -0.10421,    0.14471,4
147.811,   32.12000,    -2.01241, 97.11090,-8.7719e-002,    0.14994,4
156.5,   32.85000,    -2.10484, 97.03346,-9.9970e-002,    0.15494,4
164.797,   33.58000,    -2.23827, 96.97036,    -0.10999,    0.15974,4
172.791,   34.31000,    -2.40169, 96.89675,    -0.11190,    0.16440,4
180.592,   35.04000,    -2.56744, 96.82218,-9.6431e-002,    0.16896,4
188.28,   35.77000,    -2.74667, 96.76291,-7.9460e-002,    0.17347,4
195.89,   36.50000,    -2.91611, 96.70076,-6.9696e-002,    0.17794,4
203.392,   37.23000,    -3.09007, 96.64245,-7.4915e-002,    0.18234,4
210.825,   37.96000,    -3.26683, 96.58700,    -0.10361,    0.18671,4
218.223,   38.69000,    -3.45165, 96.53728,-6.5780e-002,    0.19104,4
225.567,   39.42000,    -3.63277, 96.48470,-4.5861e-002,    0.19534,4
232.892,   40.15000,    -3.81742, 96.44551,-5.9635e-002,    0.19960,4
240.199,   40.88000,    -4.00788, 96.39484,-6.7402e-002,    0.20383,4
247.475,   41.61000,    -4.20587, 96.35373,-5.9871e-002,    0.20801,4
254.752,   42.34000,    -4.39727, 96.31931,-5.2739e-002,    0.21217,4
262.018,   43.07000,    -4.60102, 96.27533,-5.1061e-002,    0.21628,4
269.261,   43.80000,    -4.81029, 96.23805,-5.2461e-002,    0.22033,4
276.499,   44.53000,    -5.02269, 96.19885,-4.1603e-002,    0.22434,4
283.742,   45.26000,    -5.24655, 96.15201,-7.8302e-002,    0.22830,4
290.978,   45.99000,    -5.48120, 96.10612,-6.7816e-002,    0.23219,4
298.207,   46.72000,    -5.73102, 96.04589,-6.8559e-002,    0.23602,4
305.455,   47.45000,    -5.99105, 95.98088,-7.1144e-002,    0.23980,4
312.702,   48.18000,    -6.26264, 95.90057,    -0.11290,    0.24350,4
319.914,   48.91000,    -6.55029, 95.80115,    -0.11602,    0.24711,4
327.141,   49.64000,    -6.86601, 95.68260,    -0.17546,    0.25065,4
334.361,   50.37000,    -7.19896, 95.53537,    -0.24792,    0.25410,4
341.6,   51.10000,    -7.54628, 95.36520,    -0.23461,    0.25746,4
348.842,   51.83000,    -7.91038, 95.16635,    -0.28621,    0.26073,4
356.06,   52.56000,    -8.29110, 94.92734,    -0.35255,    0.26390,4
363.296,   53.29000,    -8.65517, 94.65488,    -0.41022,    0.26696,4
370.526,   54.02000,    -9.01112, 94.34895,    -0.42175,    0.26992,4
377.76,   54.75000,    -9.35002, 94.00860,    -0.47747,    0.27276,4
384.994,   55.48000,    -9.66996, 93.63958,    -0.52369,    0.27549,4
392.238,   56.21000,    -9.97191, 93.23423,    -0.59225,    0.27810,4
399.481,   56.94000,   -10.27152, 92.80019,    -0.55717,    0.28059,4
406.715,   57.67000,   -10.57580, 92.32409,    -0.70340,    0.28294,4
413.962,   58.40000,   -10.87612, 91.82792,    -0.70968,    0.28517,4
421.205,   59.13000,   -11.19624, 91.28968,    -0.77882,    0.28727,4
428.45,   59.86000,   -11.55217, 90.69981,    -0.83577,    0.28923,4
435.713,   60.59000,   -11.93685, 90.05449,    -0.92391,    0.29105,4
442.978,   61.32000,   -12.35050, 89.35564,    -1.02143,    0.29273,4
450.235,   62.05000,   -12.79020, 88.58795,    -1.09375,    0.29426,4
457.478,   62.78000,   -13.26602, 87.73040,    -1.63255,    0.29564,4
[...]
501.081,   67.16000,   -17.15290, 80.07361,    -2.43146,    0.30076,4
508.35,   67.89000,   -18.01973, 78.19981,    -2.73372,    0.30106,4
515.631,   68.62000,   -18.95772, 75.96558,    -3.02444,    0.30121,4
522.907,   69.35000,   -19.97622, 73.53537,    -3.57104,    0.30121,4
530.197,   70.08000,   -21.06295, 70.81549,    -3.85256,    0.30104,4
537.477,   70.81000,   -22.20457, 67.78107,    -4.44173,    0.30072,4
544.758,   71.54000,   -23.38708, 64.38910,    -4.90100,    0.30024,4
552.037,   72.27000,   -24.57177, 60.65010,    -5.35425,    0.29961,4
559.303,   73.00000,   -25.73105, 56.58126,    -5.69297,    0.29882,4
566.592,   73.73000,   -26.83677, 52.23996,    -6.48670,    0.29788,4
573.865,   74.46000,   -27.84274, 47.62237,    -6.37540,    0.29678,4
581.131,   75.19000,   -28.70078, 42.80401,    -6.64145,    0.29554,4
588.385,   75.92000,   -29.33603, 37.84799,    -6.86319,    0.29416,4
595.636,   76.65000,   -29.49542, 32.83174,    -6.73859,    0.29263,4
602.867,   77.38000,   -29.04041, 27.93595,    -6.60892,    0.29096,4
610.079,   78.11000,   -28.35861, 23.22467,    -6.17566,    0.28916,4
617.312,   78.84000,   -27.71760, 18.70841,    -6.03783,    0.28722,4
624.55,   79.57000,   -26.70552, 14.40535,    -5.66039,    0.28515,4
631.751,   80.30000,   -18.10377, 11.12906,    -1.06752,    0.28296,4
638.64,   81.03000,    -6.01464, 11.01625,    -0.25001,    0.28074,4
645.854,   81.76000,    -3.80700, 10.83365,    -0.15620,    0.27831,4
653.239,   82.49000,    -3.15220, 10.74665,    -0.12203,    0.27569,4
660.634,   83.22000,    -2.83755, 10.65966,    -0.12401,    0.27295,4
668.013,   83.95000,    -2.68389, 10.58700,-8.9218e-002,    0.27009,4
675.371,   84.68000,    -2.59146, 10.54589,-4.2788e-002,    0.26714,4
682.722,   85.41000,    -2.50381, 10.52103,-4.3554e-002,    0.26408,4
690.062,   86.14000,    -2.43287, 10.49713,-4.8813e-002,    0.26093,4
697.383,   86.87000,    -2.36934, 10.47897,-2.0673e-002,    0.25768,4
704.718,   87.60000,    -2.33046, 10.45698,-3.2790e-002,    0.25434,4
712.034,   88.33000,    -2.30983, 10.44550,-1.7219e-002,    0.25092,4
719.352,   89.06000,    -2.31452, 10.43021,-4.1456e-004,    0.24742,4
726.671,   89.79000,    -2.33723, 10.41683,-3.1667e-002,    0.24384,4
733.982,   90.52000,    -2.37223, 10.41109,-1.8511e-002,    0.24019,4
741.294,   91.25000,    -2.43226, 10.40153, 1.5565e-003,    0.23647,4
748.616,   91.98000,    -2.50416, 10.39579,-1.9753e-002,    0.23269,4
755.922,   92.71000,    -2.57953, 10.38432,-1.1090e-002,    0.22886,4
763.229,   93.44000,    -2.65649, 10.37763,-2.7449e-002,    0.22497,4
770.554,   94.17000,    -2.74497, 10.36616,-9.0272e-003,    0.22103,4
777.844,   94.90000,    -2.82597, 10.35372,-1.2564e-003,    0.21706,4
785.149,   95.63000,    -2.91342, 10.34895, 5.8427e-003,    0.21305,4
792.46,   96.36000,    -3.00532, 10.34035,-5.5333e-003,    0.20900,4
799.772,   97.09000,    -3.10536, 10.33461,-7.9981e-003,    0.20492,4
807.072,   97.82000,    -3.20141, 10.32983,-3.2461e-002,    0.20083,4
814.381,   98.55000,    -3.30671, 10.32313,-1.2275e-002,    0.19671,4
821.681,   99.28000,    -3.41543, 10.32027,-1.9942e-002,    0.19258,4
828.988,  100.01,    -3.53615, 10.31262,-2.5836e-002,    0.18844,4
836.309,  100.74,    -3.65791, 10.30880,-9.6461e-003,    0.18429,4
843.614,  101.47,    -3.79394, 10.30593, 3.0734e-003,    0.18014,4
850.922,  102.2,    -3.93352, 10.30019,-9.7300e-003,    0.17600,4
858.241,  102.93,    -4.08258, 10.29732,-3.7409e-003,    0.17185,4
865.545,  103.66,    -4.23137, 10.29350, 1.7081e-003,    0.16773,4
869.149,  104.02,    -4.30770, 10.28967,-3.6725e-002,    0.16570,4

File: char_GF_23_06_10.csv
#FILE:                       ,char_GF_23_06_10.dsu
#FORMAT:                     ,NETZSCH5
#IDENTITY:                   ,char GF
#DECIMAL:                    ,POINT
#SEPARATOR:                  ,COMMA
#MTYPE:                      ,DTA
#MSUBTYPE:                   ,
#INSTRUMENT:                 ,NETZSCH STA 449 C
#PROJECT:                    ,Torrefaction
#DATE/TIME:                  ,23/06/2010 08:50:22
#CORR. FILE:                 ,char_GF_23_06_10.bsu
#LABORATORY:                 ,Sustainable Research Energ
#OPERATOR:                   ,EMF
#REMARK:                     ,
#SAMPLE:                     ,nonisoth oxid with init drying
#SAMPLE MASS /mg:            ,10.100
#MATERIAL:                   ,Alumina
#REFERENCE:                  ,Alumina
#REFERENCE MASS /mg:         ,0.000
#TYPE OF CRUCIBLE:           ,DTA/TG crucible Al2O3
#SAMPLE CRUCIBLE MASS /mg:   ,0.000
#REFERENCE CRUCIBLE MASS /mg:,0.000
#CORR. CODE:                 ,020
#EXO:                        ,-1
#RANGE:                      ,30.0....900.0/-20.0....10.0K/min
#SEGMENT:                    ,S1-5/5

##Temp./øC,Time/min,DTA/(mW/mg),Mass/%,Sensit./(æV/mW),Segment
 30.99300,0.0000e+000, 8.0709e-002,100,8.8939e-002,1
 31.27800,    0.81000, 3.8906e-002,100.001,8.9069e-002,1
 35.07500,    1.62000,    -0.37750,100.004,9.0815e-002,1
 43.05600,    2.43000,    -0.92943, 99.98515,9.4543e-002,1
 53.16700,    3.24000,    -1.31504, 99.95347,9.9383e-002,1
 63.82500,    4.05000,    -1.50119, 99.89604,    0.10462,1
 74.27000,    4.86000,    -1.58813, 99.78218,    0.10988,1
 84.20900,    5.67000,    -1.63910, 99.65248,    0.11500,1
 93.79000,    6.48000,    -1.69918, 99.50792,    0.12003,1
102.878,    7.29000,    -1.72521, 99.36832,    0.12489,2
110.249,    8.10000,    -1.33563, 99.23168,    0.12889,2
114.262,    8.91000,    -0.89689, 99.11188,    0.13109,2
115.487,    9.72000,    -0.58423, 99.01683,    0.13176,2
114.811,   10.53000,    -0.36453, 98.94851,    0.13139,2
112.949,   11.34000,    -0.22594, 98.90594,    0.13037,2
110.382,   12.15000,    -0.12763, 98.86733,    0.12897,2
107.386,   12.96000,-5.3457e-002, 98.86733,    0.12733,2
104.144,   13.77000,-9.8554e-003, 98.85743,    0.12558,2
100.801,   14.58000, 2.6997e-002, 98.84257,    0.12378,2
 97.64100,   15.39000, 9.1237e-003, 98.84554,    0.12208,2
 95.94700,   16.20000,    -0.11234, 98.84356,    0.12118,2
 95.97700,   17.01000,    -0.26652, 98.84455,    0.12120,2
 96.80900,   17.82000,    -0.33984, 98.83762,    0.12164,2
 97.72200,   18.63000,    -0.36279, 98.84356,    0.12213,2
 98.42600,   19.44000,    -0.34450, 98.82871,    0.12250,2
 98.90300,   20.25000,    -0.33371, 98.82574,    0.12276,2
 99.22800,   21.06000,    -0.32014, 98.82475,    0.12293,2
 99.45100,   21.87000,    -0.30776, 98.81881,    0.12305,2
 99.61400,   22.68000,    -0.30554, 98.83960,    0.12314,3
 99.69500,   23.49000,    -0.36370, 98.97921,    0.12318,3
 99.78500,   24.30000,    -0.35854, 99.01188,    0.12323,3
 99.84800,   25.11000,    -0.33434, 99.00000,    0.12327,3
 99.90900,   25.92000,    -0.31821, 98.96832,    0.12329,3
 99.94700,   26.73000,    -0.31814, 98.92673,    0.12332,3
100.104,   27.54000,    -0.40920, 98.88812,    0.12340,4
103.085,   28.35000,    -1.11677, 98.84356,    0.12501,4
110.352,   29.16000,    -2.02992, 98.80693,    0.12895,4
120.206,   29.97000,    -2.64165, 98.77624,    0.13437,4
130.885,   30.78000,    -2.93770, 98.73960,    0.14033,4
141.395,   31.59000,    -3.05603, 98.69406,    0.14628,4
151.351,   32.40000,    -3.10926, 98.63168,    0.15197,4
160.717,   33.21000,    -3.16841, 98.58020,    0.15738,4
169.673,   34.02000,    -3.26417, 98.50891,    0.16258,4
178.348,   34.83000,    -3.39809, 98.44059,    0.16765,4
186.885,   35.64000,    -3.53547, 98.38515,    0.17265,4
195.327,   36.45000,    -3.68558, 98.34455,    0.17761,4
203.641,   37.26000,    -3.85142, 98.31089,    0.18249,4
211.882,   38.07000,    -4.01490, 98.29406,    0.18733,4
220.084,   38.88000,    -4.18118, 98.27129,    0.19213,4
228.225,   39.69000,    -4.36188, 98.24951,    0.19688,4
236.326,   40.50000,    -4.55476, 98.23267,    0.20159,4
244.416,   41.31000,    -4.75229, 98.20594,    0.20626,4
252.484,   42.12000,    -4.96277, 98.17624,    0.21088,4
260.552,   42.93000,    -5.19228, 98.14950,    0.21545,4
268.594,   43.74000,    -5.44028, 98.11287,    0.21996,4
276.634,   44.55000,    -5.71012, 98.05644,    0.22441,4
284.655,   45.36000,    -5.99736, 97.98911,    0.22879,4
292.682,   46.17000,    -6.33721, 97.89901,    0.23310,4
300.71,   46.98000,    -6.70978, 97.76535,    0.23733,4
308.737,   47.79000,    -7.14578, 97.60396,    0.24149,4
316.77,   48.60000,    -7.66112, 97.36832,    0.24555,4
324.816,   49.41000,    -8.26484, 97.06535,    0.24952,4
332.853,   50.22000,    -8.95650, 96.64356,    0.25338,4
340.885,   51.03000,    -9.72257, 96.09505,    0.25713,4
348.928,   51.84000,   -10.54040, 95.40990,    0.26077,4
356.959,   52.65000,   -11.37963, 94.57426,    0.26428,4
364.99,   53.46000,   -12.26144, 93.56535,    0.26766,4
373.039,   54.27000,   -13.17310, 92.34852,    0.27092,4
381.086,   55.08000,   -14.13497, 90.94059,    0.27403,4
389.116,   55.89000,   -15.17601, 89.26040,    0.27699,4
397.168,   56.70000,   -16.29708, 87.31683,    0.27981,4
405.229,   57.51000,   -17.52969, 84.93465,    0.28247,4
413.279,   58.32000,   -18.81656, 82.26535,    0.28497,4
421.332,   59.13000,   -20.11236, 79.24456,    0.28730,4
429.372,   59.94000,   -21.37824, 75.81386,    0.28946,4
437.432,   60.75000,   -22.48343, 72.06337,    0.29146,4
445.465,   61.56000,   -23.38280, 67.99703,    0.29327,4
453.5,   62.37000,   -24.07768, 63.71287,    0.29490,4
461.534,   63.18000,   -24.63733, 59.22871,    0.29635,4
469.58,   63.99000,   -25.10637, 54.58713,    0.29762,4
477.606,   64.80000,   -25.46179, 49.83960,    0.29869,4
485.632,   65.61000,   -25.71259, 45.00891,    0.29958,4
493.666,   66.42000,   -25.90865, 40.18911,    0.30028,4
501.705,   67.23000,   -26.02617, 35.34555,    0.30079,4
509.73,   68.04000,   -25.95773, 30.55446,    0.30110,4
517.764,   68.85000,   -25.47453, 25.91981,    0.30123,4
525.768,   69.66000,   -23.41889, 21.72376,    0.30116,4
533.644,   70.47000,   -13.77553, 19.55248,    0.30091,4
541.453,   71.28000,    -8.81024, 19.32772,    0.30048,4
549.527,   72.09000,    -8.16312, 19.27525,    0.29984,4
557.707,   72.90000,    -8.13546, 19.23564,    0.29901,4
565.881,   73.71000,    -8.22342, 19.17921,    0.29797,4
574.019,   74.52000,    -8.34178, 19.14654,    0.29676,4
582.15,   75.33000,    -8.46098, 19.09208,    0.29536,4
590.265,   76.14000,    -8.58406, 19.02772,    0.29378,4
598.381,   76.95000,    -8.70833, 18.92673,    0.29201,4
606.481,   77.76000,    -8.82357, 18.77228,    0.29008,4
614.586,   78.57000,    -8.94402, 18.57822,    0.28797,4
622.69,   79.38000,    -9.08457, 18.41981,    0.28570,4
630.787,   80.19000,    -9.21165, 18.28317,    0.28326,4
638.879,   81.00000,    -9.28840, 18.16634,    0.28067,4
646.975,   81.81000,    -9.28406, 18.04654,    0.27792,4
655.06,   82.62000,    -9.15446, 17.89802,    0.27502,4
663.148,   83.43000,    -8.79027, 17.70396,    0.27199,4
671.235,   84.24000,    -7.96909, 17.51386,    0.26881,4
679.306,   85.05000,    -6.91065, 17.31584,    0.26552,4
687.394,   85.86000,    -6.16015, 17.18515,    0.26208,4
695.481,   86.67000,    -5.61427, 17.14356,    0.25853,4
[...]
727.896,   89.91000,    -4.55802, 16.96931,    0.24323,4
735.998,   90.72000,    -4.35287, 16.94258,    0.23917,4
744.097,   91.53000,    -4.20732, 16.93069,    0.23503,4
752.207,   92.34000,    -4.12814, 16.88317,    0.23082,4
760.317,   93.15000,    -4.07631, 16.85247,    0.22653,4
768.41,   93.96000,    -4.05222, 16.80990,    0.22219,4
776.515,   94.77000,    -4.04042, 16.79803,    0.21779,4
784.631,   95.58000,    -4.03020, 16.75446,    0.21333,4
792.738,   96.39000,    -4.03269, 16.73070,    0.20884,4
800.851,   97.20000,    -4.05602, 16.70495,    0.20432,4
808.97,   98.01000,    -4.09716, 16.67228,    0.19976,4
817.067,   98.82000,    -4.14105, 16.60891,    0.19519,4
825.189,   99.63000,    -4.19354, 16.59703,    0.19059,4
833.296,  100.44,    -4.24796, 16.56634,    0.18599,4
841.411,  101.25,    -4.32376, 16.54852,    0.18139,4
849.514,  102.06,    -4.40116, 16.52278,    0.17679,4
857.628,  102.87,    -4.48911, 16.49010,    0.17220,4
865.729,  103.68,    -4.58794, 16.46238,    0.16763,4
873.839,  104.49,    -4.70481, 16.46139,    0.16307,4
881.944,  105.3,    -4.83460, 16.41386,    0.15854,4
890.057,  106.11,    -4.95756, 16.42080,    0.15403,4
898.171,  106.92,    -5.11740, 16.39308,    0.14956,4
895.35,  107.918,    -1.75928, 16.38218,    0.15111,5
874.754,  108.93,    -0.43245, 16.39109,    0.16255,5
852.576,  109.942,    -0.29340, 16.42971,    0.17506,5
830.908,  110.955,    -0.27282, 16.40198,    0.18735,5
809.498,  111.968,    -0.24509, 16.35941,    0.19946,5
788.287,  112.98,    -0.26004, 16.37129,    0.21131,5
767.276,  113.993,    -0.25608, 16.37327,    0.22280,5
746.365,  115.005,    -0.26196, 16.36733,    0.23386,5
725.622,  116.017,    -0.28262, 16.37822,    0.24436,5
704.959,  117.03,    -0.27554, 16.35446,    0.25423,5
684.407,  118.043,    -0.27913, 16.34852,    0.26337,5
663.921,  119.055,    -0.28379, 16.36535,    0.27169,5
643.509,  120.067,    -0.28467, 16.34753,    0.27912,5
623.14,  121.08,    -0.28474, 16.37723,    0.28556,5
602.783,  122.093,    -0.28284, 16.37129,    0.29098,5
582.459,  123.105,    -0.27368, 16.36039,    0.29530,5
562.159,  124.118,    -0.27160, 16.34753,    0.29847,5
541.859,  125.13,    -0.26899, 16.35545,    0.30045,5
521.606,  126.142,    -0.26131, 16.34258,    0.30122,5
501.37,  127.155,    -0.25347, 16.34653,    0.30077,5
481.113,  128.167,    -0.24082, 16.38614,    0.29910,5
460.869,  129.18,    -0.22853, 16.35644,    0.29624,5
440.637,  130.192,    -0.21601, 16.37426,    0.29220,5
420.39,  131.205,    -0.19791, 16.36535,    0.28704,5
400.176,  132.218,    -0.17849, 16.36436,    0.28082,5
380.08,  133.23,    -0.15513, 16.36931,    0.27365,5
360.391,  134.242,    -0.14437, 16.35940,    0.26574,5
341.486,  135.255,    -0.12308, 16.36535,    0.25741,5
323.548,  136.268,    -0.11337, 16.35842,    0.24890,5
306.609,  137.28,-9.6274e-002, 16.34753,    0.24039,5
290.634,  138.292,-9.2284e-002, 16.35446,    0.23201,5
275.561,  139.305,-6.7459e-002, 16.36535,    0.22382,5
261.314,  140.317,-6.9368e-002, 16.34951,    0.21588,5
247.841,  141.33,-6.4192e-002, 16.35941,    0.20822,5
235.112,  142.343,-4.2510e-002, 16.35050,    0.20089,5
223.052,  143.355,-2.0428e-002, 16.35941,    0.19387,5
211.621,  144.367, 1.5869e-002, 16.36139,    0.18718,5
200.794,  145.38, 2.6009e-002, 16.35941,    0.18082,5
190.517,  146.393, 4.1070e-002, 16.35842,    0.17478,5
180.784,  147.405, 7.1737e-002, 16.36337,    0.16907,5
171.59,  148.417, 8.5432e-002, 16.35446,    0.16370,5
162.871,  149.43,     0.10845, 16.37327,    0.15863,5
154.626,  150.442,     0.12629, 16.37030,    0.15386,5
153.929,  150.53,     0.12985, 16.36931,    0.15346,5